#isoforms=['ENSG00000211445.SE.0.A.up_ENSG00000211445.SE.0.A.SE1_ENSG00000211445.SE.0.A.dn','ENSG00000211445.SE.0.B.up_ENSG00000211445.SE.0.B.dn']	exon_lens=('ENSG00000211445.SE.0.A.up',136),('ENSG00000211445.SE.0.A.SE1',426),('ENSG00000211445.SE.0.A.dn',154),('ENSG00000211445.SE.0.B.up',179),('ENSG00000211445.SE.0.B.dn',154)	iters=5000	burn_in=500	lag=10	percent_accept=84.06	proposal_type=drift	counts=(0,0):1338,(0,1):1133,(1,0):52,(1,1):3716	assigned_counts=0:86,1:4815	chrom=chr5	strand=+	mRNA_starts=151020606,151020563	mRNA_ends=151025493,151025493
sampled_psi	log_score
0.0063,0.9937	-28371.51
0.0080,0.9920	-28382.05
0.0079,0.9921	-28401.27
0.0089,0.9911	-28482.86
0.0056,0.9944	-28346.62
0.0092,0.9908	-28408.11
0.0065,0.9935	-28381.49
0.0073,0.9927	-28401.05
0.0074,0.9926	-28371.64
0.0085,0.9915	-28463.90
0.0056,0.9944	-28383.00
0.0104,0.9896	-28434.07
0.0066,0.9934	-28336.24
0.0055,0.9945	-28346.83
0.0067,0.9933	-28361.34
0.0074,0.9926	-28445.16
0.0061,0.9939	-28356.46
0.0104,0.9896	-28479.70
0.0074,0.9926	-28352.11
0.0047,0.9953	-28311.48
0.0070,0.9930	-28376.33
0.0077,0.9923	-28342.78
0.0071,0.9929	-28445.56
0.0116,0.9884	-28442.41
0.0070,0.9930	-28401.12
0.0052,0.9948	-28342.08
0.0070,0.9930	-28361.48
0.0075,0.9925	-28405.96
0.0077,0.9923	-28415.74
0.0107,0.9893	-28416.81
0.0063,0.9937	-28351.28
0.0065,0.9935	-28366.36
0.0077,0.9923	-28372.02
0.0070,0.9930	-28366.44
0.0080,0.9920	-28430.32
0.0093,0.9907	-28422.23
0.0065,0.9935	-28336.18
0.0070,0.9930	-28396.18
0.0089,0.9911	-28398.05
0.0060,0.9940	-28366.71
0.0076,0.9924	-28386.52
0.0089,0.9911	-28421.66
0.0059,0.9941	-28361.72
0.0073,0.9927	-28371.59
0.0065,0.9935	-28376.42
0.0056,0.9944	-28341.50
0.0086,0.9914	-28402.23
0.0078,0.9922	-28401.20
0.0058,0.9942	-28351.56
0.0089,0.9911	-28421.56
0.0058,0.9942	-28341.29
0.0059,0.9941	-28361.71
0.0074,0.9926	-28376.53
0.0075,0.9925	-28381.52
0.0066,0.9934	-28356.33
0.0084,0.9916	-28382.83
0.0058,0.9942	-28341.34
0.0056,0.9944	-28351.90
0.0077,0.9923	-28406.02
0.0079,0.9921	-28425.47
0.0083,0.9917	-28416.06
0.0090,0.9910	-28416.99
0.0072,0.9928	-28386.28
0.0074,0.9926	-28381.46
0.0072,0.9928	-28371.47
0.0078,0.9922	-28415.77
0.0080,0.9920	-28382.17
0.0079,0.9921	-28415.79
0.0062,0.9938	-28381.72
0.0061,0.9939	-28371.77
0.0073,0.9927	-28405.97
0.0083,0.9917	-28373.00
0.0068,0.9932	-28366.36
0.0066,0.9934	-28371.36
0.0065,0.9935	-28366.38
0.0071,0.9929	-28396.14
0.0078,0.9922	-28454.57
0.0068,0.9932	-28406.21
0.0076,0.9924	-28386.47
0.0071,0.9929	-28376.39
0.0075,0.9925	-28381.51
0.0076,0.9924	-28391.35
0.0078,0.9922	-28362.52
0.0075,0.9925	-28401.07
0.0064,0.9936	-28381.55
0.0071,0.9929	-28440.65
0.0074,0.9926	-28352.13
0.0068,0.9932	-28376.33
0.0077,0.9923	-28386.60
0.0079,0.9921	-28381.99
0.0065,0.9935	-28401.51
0.0068,0.9932	-28366.36
0.0080,0.9920	-28387.00
0.0066,0.9934	-28416.45
0.0070,0.9930	-28381.30
0.0076,0.9924	-28371.92
0.0084,0.9916	-28411.47
0.0061,0.9939	-28356.42
0.0085,0.9915	-28382.93
0.0077,0.9923	-28362.34
0.0060,0.9940	-28361.66
0.0098,0.9902	-28441.84
0.0077,0.9923	-28386.63
0.0060,0.9940	-28366.70
0.0079,0.9921	-28415.82
0.0068,0.9932	-28336.51
0.0063,0.9937	-28386.75
0.0085,0.9915	-28473.41
0.0071,0.9929	-28420.86
0.0070,0.9930	-28391.21
0.0082,0.9918	-28416.00
0.0062,0.9938	-28336.06
0.0065,0.9935	-28341.21
0.0087,0.9913	-28411.82
0.0060,0.9940	-28361.64
0.0067,0.9933	-28376.35
0.0070,0.9930	-28376.34
0.0065,0.9935	-28396.57
0.0067,0.9933	-28386.35
0.0084,0.9916	-28449.60
0.0052,0.9948	-28315.88
0.0076,0.9924	-28396.24
0.0065,0.9935	-28411.66
0.0071,0.9929	-28361.59
0.0066,0.9934	-28371.38
0.0078,0.9922	-28483.63
0.0058,0.9942	-28367.03
0.0069,0.9931	-28421.11
0.0060,0.9940	-28397.46
0.0074,0.9926	-28347.22
0.0058,0.9942	-28351.54
0.0071,0.9929	-28361.53
0.0062,0.9938	-28371.60
0.0069,0.9931	-28386.28
0.0062,0.9938	-28386.80
0.0079,0.9921	-28411.00
0.0067,0.9933	-28391.32
0.0093,0.9907	-28422.39
0.0064,0.9936	-28386.62
0.0076,0.9924	-28376.74
0.0058,0.9942	-28372.12
0.0064,0.9936	-28381.50
0.0064,0.9936	-28366.39
0.0079,0.9921	-28459.30
0.0055,0.9945	-28362.33
0.0078,0.9922	-28386.68
0.0069,0.9931	-28376.33
0.0069,0.9931	-28366.39
0.0067,0.9933	-28421.27
0.0073,0.9927	-28391.24
0.0064,0.9936	-28376.47
0.0081,0.9919	-28396.66
0.0062,0.9938	-28356.37
0.0077,0.9923	-28362.30
0.0067,0.9933	-28361.34
0.0060,0.9940	-28361.59
0.0063,0.9937	-28371.53
0.0069,0.9931	-28416.08
0.0059,0.9941	-28438.65
0.0077,0.9923	-28347.65
0.0064,0.9936	-28391.63
0.0065,0.9935	-28361.34
0.0067,0.9933	-28341.35
0.0073,0.9927	-28440.40
0.0060,0.9940	-28371.87
0.0064,0.9936	-28406.76
0.0065,0.9935	-28356.31
0.0066,0.9934	-28336.26
0.0060,0.9940	-28376.89
0.0064,0.9936	-28396.61
0.0060,0.9940	-28356.55
0.0062,0.9938	-28376.63
0.0085,0.9915	-28454.38
0.0061,0.9939	-28412.39
0.0064,0.9936	-28401.73
0.0068,0.9932	-28386.30
0.0054,0.9946	-28357.33
0.0057,0.9943	-28310.42
0.0079,0.9921	-28468.99
0.0064,0.9936	-28406.76
0.0063,0.9937	-28406.99
0.0068,0.9932	-28386.29
0.0056,0.9944	-28372.62
0.0071,0.9929	-28381.32
0.0077,0.9923	-28381.69
0.0072,0.9928	-28405.98
0.0074,0.9926	-28391.28
0.0069,0.9931	-28406.18
0.0056,0.9944	-28419.14
0.0063,0.9937	-28351.27
0.0069,0.9931	-28416.13
0.0072,0.9928	-28356.68
0.0065,0.9935	-28381.43
0.0063,0.9937	-28371.53
0.0055,0.9945	-28383.22
0.0067,0.9933	-28396.33
0.0065,0.9935	-28371.39
0.0069,0.9931	-28381.30
0.0065,0.9935	-28401.54
0.0057,0.9943	-28336.22
0.0069,0.9931	-28361.43
0.0068,0.9932	-28351.40
0.0063,0.9937	-28356.35
0.0077,0.9923	-28440.03
0.0058,0.9942	-28351.61
0.0082,0.9918	-28396.78
0.0068,0.9932	-28341.48
0.0068,0.9932	-28426.24
0.0064,0.9936	-28361.36
0.0079,0.9921	-28401.33
0.0055,0.9945	-28315.67
0.0083,0.9917	-28440.01
0.0063,0.9937	-28341.16
0.0080,0.9920	-28415.84
0.0076,0.9924	-28435.21
0.0079,0.9921	-28430.31
0.0057,0.9943	-28320.74
0.0073,0.9927	-28376.49
0.0072,0.9928	-28361.62
0.0087,0.9913	-28454.47
0.0074,0.9926	-28386.35
0.0088,0.9912	-28397.85
0.0060,0.9940	-28382.13
0.0083,0.9917	-28411.37
0.0070,0.9930	-28361.51
0.0072,0.9928	-28361.69
0.0070,0.9930	-28391.21
0.0087,0.9913	-28426.09
0.0058,0.9942	-28346.50
0.0073,0.9927	-28371.54
0.0068,0.9932	-28386.31
0.0078,0.9922	-28435.14
0.0068,0.9932	-28346.39
0.0082,0.9918	-28415.98
0.0051,0.9949	-28368.83
0.0061,0.9939	-28351.35
0.0061,0.9939	-28330.98
0.0075,0.9925	-28420.62
0.0054,0.9946	-28383.40
0.0076,0.9924	-28396.27
0.0062,0.9938	-28371.62
0.0069,0.9931	-28426.03
0.0061,0.9939	-28341.16
0.0069,0.9931	-28401.15
0.0056,0.9944	-28351.81
0.0064,0.9936	-28341.17
0.0065,0.9935	-28366.36
0.0076,0.9924	-28405.98
0.0066,0.9934	-28321.22
0.0067,0.9933	-28416.31
0.0059,0.9941	-28392.59
0.0061,0.9939	-28407.46
0.0061,0.9939	-28371.71
0.0077,0.9923	-28386.63
0.0073,0.9927	-28386.33
0.0069,0.9931	-28381.30
0.0066,0.9934	-28406.48
0.0064,0.9936	-28421.91
0.0061,0.9939	-28381.84
0.0069,0.9931	-28396.22
0.0083,0.9917	-28416.06
0.0070,0.9930	-28386.25
0.0073,0.9927	-28391.22
0.0058,0.9942	-28361.95
0.0068,0.9932	-28361.38
0.0070,0.9930	-28361.48
0.0073,0.9927	-28410.87
0.0070,0.9930	-28381.30
0.0077,0.9923	-28444.87
0.0061,0.9939	-28387.01
0.0068,0.9932	-28391.28
0.0065,0.9935	-28351.27
0.0077,0.9923	-28406.01
0.0063,0.9937	-28396.81
0.0064,0.9936	-28401.80
0.0061,0.9939	-28381.94
0.0081,0.9919	-28459.21
0.0079,0.9921	-28401.27
0.0060,0.9940	-28366.69
0.0059,0.9941	-28377.04
0.0068,0.9932	-28371.34
0.0071,0.9929	-28366.52
0.0080,0.9920	-28396.57
0.0071,0.9929	-28401.09
0.0079,0.9921	-28401.28
0.0051,0.9949	-28353.02
0.0077,0.9923	-28425.46
0.0075,0.9925	-28386.39
0.0080,0.9920	-28382.11
0.0088,0.9912	-28397.74
0.0080,0.9920	-28367.60
0.0053,0.9947	-28331.55
0.0081,0.9919	-28406.34
0.0075,0.9925	-28454.82
0.0074,0.9926	-28386.36
0.0079,0.9921	-28449.63
0.0071,0.9929	-28376.39
0.0059,0.9941	-28392.50
0.0075,0.9925	-28376.65
0.0066,0.9934	-28361.33
0.0073,0.9927	-28381.40
0.0061,0.9939	-28356.47
0.0071,0.9929	-28430.77
0.0073,0.9927	-28391.22
0.0063,0.9937	-28371.53
0.0063,0.9937	-28351.28
0.0065,0.9935	-28371.40
0.0057,0.9943	-28382.63
0.0064,0.9936	-28416.89
0.0074,0.9926	-28435.35
0.0075,0.9925	-28430.39
0.0054,0.9946	-28352.25
0.0065,0.9935	-28381.48
0.0068,0.9932	-28356.42
0.0076,0.9924	-28415.73
0.0086,0.9914	-28373.78
0.0075,0.9925	-28415.73
0.0059,0.9941	-28377.15
0.0063,0.9937	-28331.01
0.0082,0.9918	-28411.24
0.0068,0.9932	-28346.39
0.0073,0.9927	-28381.37
0.0070,0.9930	-28366.42
0.0062,0.9938	-28391.85
0.0068,0.9932	-28396.27
0.0072,0.9928	-28371.50
0.0063,0.9937	-28376.63
0.0077,0.9923	-28391.45
0.0057,0.9943	-28398.29
0.0067,0.9933	-28371.34
0.0059,0.9941	-28392.52
0.0069,0.9931	-28411.08
0.0067,0.9933	-28376.35
0.0072,0.9928	-28386.29
0.0063,0.9937	-28386.67
0.0096,0.9904	-28432.24
0.0070,0.9930	-28371.41
0.0066,0.9934	-28356.32
0.0056,0.9944	-28382.92
0.0086,0.9914	-28440.16
0.0061,0.9939	-28336.06
0.0088,0.9912	-28426.21
0.0069,0.9931	-28341.53
0.0055,0.9945	-28367.54
0.0056,0.9944	-28403.69
0.0073,0.9927	-28371.59
0.0082,0.9918	-28430.40
0.0065,0.9935	-28356.31
0.0067,0.9933	-28376.34
0.0066,0.9934	-28361.33
0.0061,0.9939	-28376.85
0.0085,0.9915	-28430.57
0.0078,0.9922	-28381.87
0.0063,0.9937	-28406.99
0.0085,0.9915	-28411.50
0.0075,0.9925	-28391.28
0.0059,0.9941	-28377.19
0.0082,0.9918	-28358.52
0.0072,0.9928	-28361.61
0.0063,0.9937	-28386.65
0.0090,0.9910	-28393.47
0.0075,0.9925	-28405.97
0.0072,0.9928	-28351.75
0.0088,0.9912	-28421.43
0.0071,0.9929	-28386.26
0.0080,0.9920	-28411.07
0.0071,0.9929	-28341.77
0.0090,0.9910	-28402.87
0.0076,0.9924	-28430.36
0.0076,0.9924	-28430.34
0.0072,0.9928	-28386.29
0.0082,0.9918	-28406.45
0.0069,0.9931	-28351.50
0.0084,0.9916	-28411.45
0.0070,0.9930	-28401.12
0.0061,0.9939	-28381.84
0.0079,0.9921	-28386.83
0.0078,0.9922	-28444.87
0.0069,0.9931	-28351.50
0.0084,0.9916	-28449.58
0.0062,0.9938	-28376.64
0.0068,0.9932	-28376.33
0.0082,0.9918	-28425.61
0.0078,0.9922	-28415.78
0.0070,0.9930	-28435.78
0.0075,0.9925	-28366.94
0.0061,0.9939	-28346.26
0.0065,0.9935	-28416.66
0.0059,0.9941	-28377.19
0.0076,0.9924	-28391.41
0.0076,0.9924	-28362.15
0.0069,0.9931	-28341.50
0.0060,0.9940	-28336.08
0.0080,0.9920	-28372.42
0.0077,0.9923	-28420.60
0.0070,0.9930	-28376.35
0.0067,0.9933	-28411.37
0.0063,0.9937	-28366.45
0.0070,0.9930	-28386.25
0.0073,0.9927	-28450.22
0.0081,0.9919	-28415.89
0.0086,0.9914	-28411.67
0.0074,0.9926	-28381.50
0.0078,0.9922	-28381.85
0.0075,0.9925	-28381.52
0.0071,0.9929	-28420.83
0.0071,0.9929	-28415.88
0.0069,0.9931	-28386.28
0.0078,0.9922	-28401.22
0.0081,0.9919	-28382.26
0.0077,0.9923	-28430.31
0.0069,0.9931	-28366.38
0.0071,0.9929	-28371.43
0.0077,0.9923	-28396.31
0.0070,0.9930	-28420.89
0.0091,0.9909	-28440.75
0.0088,0.9912	-28445.10
0.0065,0.9935	-28371.40
0.0066,0.9934	-28346.28
0.0066,0.9934	-28406.44
0.0081,0.9919	-28391.83
0.0099,0.9901	-28432.90
0.0097,0.9903	-28455.50
0.0058,0.9942	-28346.44
0.0068,0.9932	-28431.17
0.0056,0.9944	-28346.73
0.0080,0.9920	-28425.50
0.0105,0.9895	-28461.69
0.0087,0.9913	-28473.40
0.0063,0.9937	-28366.43
0.0076,0.9924	-28405.99
0.0075,0.9925	-28410.85
0.0087,0.9913	-28430.80
0.0092,0.9908	-28468.90
0.0073,0.9927	-28376.49
0.0089,0.9911	-28435.68
0.0093,0.9907	-28412.85
0.0074,0.9926	-28405.95
0.0068,0.9932	-28351.41
0.0083,0.9917	-28454.36
0.0072,0.9928	-28366.60
0.0075,0.9925	-28396.21
0.0090,0.9910	-28402.97
0.0077,0.9923	-28381.77
0.0068,0.9932	-28446.18
0.0076,0.9924	-28376.79
0.0084,0.9916	-28378.02
0.0081,0.9919	-28411.10
0.0089,0.9911	-28412.19
0.0085,0.9915	-28387.80
0.0067,0.9933	-28376.34
0.0079,0.9921	-28435.14
0.0086,0.9914	-28454.42
0.0072,0.9928	-28381.37
0.0083,0.9917	-28387.40
0.0088,0.9912	-28388.43
0.0075,0.9925	-28401.08
0.0065,0.9935	-28396.49
0.0092,0.9908	-28412.70
0.0092,0.9908	-28436.13
0.0081,0.9919	-28396.67
0.0070,0.9930	-28361.51
0.0079,0.9921	-28425.48
0.0066,0.9934	-28376.40
0.0075,0.9925	-28405.96
0.0096,0.9904	-28469.33
0.0071,0.9929	-28371.42
0.0070,0.9930	-28351.59
0.0079,0.9921	-28367.43
0.0058,0.9942	-28336.16
0.0076,0.9924	-28410.86
0.0082,0.9918	-28387.25
0.0073,0.9927	-28401.05
0.0070,0.9930	-28425.87
0.0087,0.9913	-28416.64
0.0066,0.9934	-28411.45
0.0067,0.9933	-28396.32
0.0079,0.9921	-28357.84
0.0069,0.9931	-28431.00
0.0075,0.9925	-28391.28
0.0087,0.9913	-28416.52
0.0058,0.9942	-28331.00
0.0070,0.9930	-28396.15
0.0070,0.9930	-28366.42
0.0077,0.9923	-28367.19
0.0077,0.9923	-28386.64
0.0075,0.9925	-28391.32
0.0053,0.9947	-28331.57
0.0088,0.9912	-28411.92
0.0082,0.9918	-28396.79
0.0076,0.9924	-28396.22
0.0072,0.9928	-28381.34
0.0073,0.9927	-28386.32
0.0075,0.9925	-28386.43
0.0087,0.9913	-28459.21
0.0081,0.9919	-28372.74
0.0074,0.9926	-28410.86
0.0069,0.9931	-28371.35
0.0071,0.9929	-28351.65
0.0067,0.9933	-28431.27
0.0084,0.9916	-28421.02
0.0073,0.9927	-28356.90
0.0068,0.9932	-28371.34
0.0070,0.9930	-28396.18
0.0081,0.9919	-28420.76
0.0066,0.9934	-28416.51
0.0068,0.9932	-28401.22
0.0070,0.9930	-28430.82
0.0064,0.9936	-28346.22
0.0057,0.9943	-28351.69
0.0081,0.9919	-28391.83
0.0062,0.9938	-28407.16
0.0065,0.9935	-28381.43
0.0062,0.9938	-28386.90
0.0056,0.9944	-28367.46
0.0057,0.9943	-28377.44
0.0068,0.9932	-28396.24
0.0059,0.9941	-28377.07
0.0064,0.9936	-28437.00
0.0065,0.9935	-28381.47
0.0061,0.9939	-28366.66
0.0068,0.9932	-28376.33
0.0072,0.9928	-28405.99
0.0073,0.9927	-28445.31
0.0068,0.9932	-28366.36
0.0067,0.9933	-28371.35
0.0061,0.9939	-28397.28
0.0070,0.9930	-28381.30
0.0057,0.9943	-28372.41
0.0067,0.9933	-28366.34
0.0068,0.9932	-28376.33
0.0080,0.9920	-28396.53
0.0073,0.9927	-28391.22
0.0062,0.9938	-28315.79
0.0053,0.9947	-28399.49
0.0064,0.9936	-28371.42
0.0068,0.9932	-28356.37
0.0070,0.9930	-28386.26
0.0060,0.9940	-28341.19
0.0069,0.9931	-28406.13
0.0056,0.9944	-28362.18
0.0058,0.9942	-28361.93
0.0078,0.9922	-28391.51
0.0067,0.9933	-28401.31
0.0052,0.9948	-28363.07
0.0057,0.9943	-28372.29
0.0056,0.9944	-28341.47
0.0067,0.9933	-28361.35
0.0072,0.9928	-28386.27
0.0074,0.9926	-28386.36
0.0067,0.9933	-28406.35
0.0054,0.9946	-28357.44
0.0053,0.9947	-28362.79
0.0073,0.9927	-28450.21
0.0069,0.9931	-28376.33
0.0060,0.9940	-28397.33
0.0064,0.9936	-28386.56
0.0062,0.9938	-28402.01
0.0068,0.9932	-28401.27
0.0076,0.9924	-28367.05
0.0058,0.9942	-28356.77
0.0061,0.9939	-28386.92
0.0073,0.9927	-28366.68
0.0059,0.9941	-28366.93
0.0071,0.9929	-28371.42
0.0080,0.9920	-28430.31
0.0071,0.9929	-28366.49
0.0052,0.9948	-28342.11
0.0070,0.9930	-28366.41
0.0060,0.9940	-28366.71
0.0071,0.9929	-28401.10
0.0094,0.9906	-28422.42
0.0072,0.9928	-28361.65
0.0051,0.9949	-28310.79
0.0063,0.9937	-28386.71
0.0068,0.9932	-28361.39
0.0062,0.9938	-28376.74
0.0098,0.9902	-28395.63
0.0071,0.9929	-28406.01
0.0053,0.9947	-28342.05
0.0071,0.9929	-28361.53
0.0051,0.9949	-28342.29
0.0063,0.9937	-28401.81
0.0096,0.9904	-28432.13
0.0095,0.9905	-28436.69
0.0061,0.9939	-28361.52
0.0069,0.9931	-28396.22
0.0055,0.9945	-28362.40
0.0073,0.9927	-28430.49
0.0087,0.9913	-28440.28
0.0083,0.9917	-28420.88
0.0079,0.9921	-28372.34
0.0069,0.9931	-28366.40
0.0067,0.9933	-28376.33
0.0064,0.9936	-28386.54
0.0105,0.9895	-28429.75
0.0076,0.9924	-28362.10
0.0078,0.9922	-28440.01
0.0072,0.9928	-28430.62
0.0079,0.9921	-28362.66
0.0060,0.9940	-28382.15
0.0104,0.9896	-28470.57
0.0065,0.9935	-28411.61
0.0070,0.9930	-28371.41
0.0078,0.9922	-28367.25
0.0090,0.9910	-28449.95
0.0074,0.9926	-28415.76
0.0091,0.9909	-28426.66
0.0068,0.9932	-28366.35
0.0063,0.9937	-28406.87
0.0078,0.9922	-28406.06
0.0069,0.9931	-28366.38
0.0073,0.9927	-28401.05
0.0082,0.9918	-28387.21
0.0059,0.9941	-28346.39
0.0077,0.9923	-28430.33
0.0065,0.9935	-28356.31
0.0075,0.9925	-28459.67
0.0064,0.9936	-28421.95
0.0068,0.9932	-28361.37
0.0056,0.9944	-28310.43
0.0075,0.9925	-28415.74
0.0067,0.9933	-28361.34
0.0082,0.9918	-28411.26
0.0064,0.9936	-28386.59
0.0054,0.9946	-28357.48
0.0057,0.9943	-28387.79
0.0076,0.9924	-28381.61
0.0074,0.9926	-28405.96
0.0072,0.9928	-28396.13
0.0062,0.9938	-28371.65
0.0066,0.9934	-28371.35
0.0085,0.9915	-28430.61
0.0074,0.9926	-28371.71
0.0077,0.9923	-28376.91
0.0077,0.9923	-28415.75
0.0066,0.9934	-28346.28
0.0072,0.9928	-28381.33
0.0079,0.9921	-28415.82
0.0073,0.9927	-28401.05
0.0074,0.9926	-28401.06
0.0090,0.9910	-28473.48
0.0064,0.9936	-28351.27
0.0063,0.9937	-28361.39
0.0072,0.9928	-28366.56
0.0062,0.9938	-28386.91
0.0077,0.9923	-28410.88
0.0090,0.9910	-28435.91
0.0080,0.9920	-28396.54
0.0063,0.9937	-28376.59
0.0077,0.9923	-28406.02
0.0073,0.9927	-28361.77
0.0073,0.9927	-28420.71
0.0080,0.9920	-28396.59
0.0064,0.9936	-28401.68
0.0069,0.9931	-28376.33
0.0066,0.9934	-28426.45
0.0068,0.9932	-28396.28
0.0080,0.9920	-28338.75
0.0079,0.9921	-28377.21
0.0063,0.9937	-28376.54
0.0072,0.9928	-28391.20
0.0067,0.9933	-28351.37
0.0079,0.9921	-28420.65
0.0085,0.9915	-28402.11
0.0076,0.9924	-28371.85
0.0058,0.9942	-28392.68
0.0069,0.9931	-28381.30
0.0056,0.9944	-28351.89
0.0083,0.9917	-28387.39
0.0070,0.9930	-28361.50
0.0060,0.9940	-28376.95
0.0082,0.9918	-28406.37
0.0080,0.9920	-28401.42
0.0063,0.9937	-28315.84
0.0066,0.9934	-28386.43
0.0079,0.9921	-28420.63
0.0055,0.9945	-28346.90
0.0076,0.9924	-28376.77
0.0064,0.9936	-28356.32
0.0069,0.9931	-28396.19
0.0070,0.9930	-28396.15
0.0078,0.9922	-28439.99
0.0056,0.9944	-28367.36
0.0073,0.9927	-28401.05
0.0062,0.9938	-28366.56
0.0082,0.9918	-28430.38
0.0072,0.9928	-28371.52
0.0066,0.9934	-28391.41
0.0060,0.9940	-28361.58
0.0071,0.9929	-28391.20
0.0064,0.9936	-28366.40
0.0061,0.9939	-28361.53
0.0071,0.9929	-28381.32
0.0064,0.9936	-28391.58
0.0055,0.9945	-28336.47
0.0064,0.9936	-28346.23
0.0054,0.9946	-28362.56
0.0059,0.9941	-28346.33
0.0068,0.9932	-28386.31
0.0054,0.9946	-28336.54
0.0063,0.9937	-28341.15
0.0072,0.9928	-28376.43
0.0066,0.9934	-28416.43
0.0060,0.9940	-28336.08
0.0064,0.9936	-28396.72
0.0065,0.9935	-28371.41
0.0064,0.9936	-28396.62
0.0082,0.9918	-28430.40
0.0073,0.9927	-28391.21
0.0062,0.9938	-28376.70
0.0072,0.9928	-28376.45
0.0083,0.9917	-28397.03
0.0078,0.9922	-28381.87
0.0064,0.9936	-28346.22
0.0066,0.9934	-28391.45
0.0064,0.9936	-28411.72
0.0077,0.9923	-28415.75
0.0071,0.9929	-28391.20
0.0074,0.9926	-28357.01
0.0081,0.9919	-28411.11
0.0081,0.9919	-28401.49
0.0069,0.9931	-28406.15
0.0060,0.9940	-28341.21
0.0084,0.9916	-28416.18
0.0069,0.9931	-28361.44
0.0072,0.9928	-28371.53
0.0094,0.9906	-28408.60
0.0065,0.9935	-28381.48
0.0054,0.9946	-28372.96
0.0078,0.9922	-28386.73
0.0071,0.9929	-28406.00
0.0078,0.9922	-28420.62
0.0079,0.9921	-28406.16
0.0058,0.9942	-28341.33
0.0055,0.9945	-28346.79
0.0073,0.9927	-28386.30
0.0073,0.9927	-28401.05
0.0068,0.9932	-28381.31
0.0065,0.9935	-28346.24
0.0069,0.9931	-28475.65
0.0071,0.9929	-28425.76
0.0077,0.9923	-28440.03
0.0068,0.9932	-28361.39
0.0059,0.9941	-28351.53
0.0074,0.9926	-28415.74
0.0065,0.9935	-28366.38
0.0080,0.9920	-28406.18
0.0058,0.9942	-28341.29
0.0060,0.9940	-28412.80
0.0065,0.9935	-28416.73
0.0069,0.9931	-28361.43
0.0064,0.9936	-28416.84
0.0072,0.9928	-28405.98
0.0081,0.9919	-28396.75
0.0069,0.9931	-28381.30
0.0060,0.9940	-28371.86
0.0060,0.9940	-28356.48
0.0060,0.9940	-28402.44
0.0064,0.9936	-28346.22
0.0079,0.9921	-28391.68
0.0065,0.9935	-28381.44
0.0076,0.9924	-28362.11
0.0058,0.9942	-28367.00
0.0065,0.9935	-28321.10
0.0074,0.9926	-28405.95
0.0078,0.9922	-28415.75
0.0059,0.9941	-28356.61
0.0066,0.9934	-28341.29
0.0056,0.9944	-28356.98
0.0071,0.9929	-28415.88
0.0077,0.9923	-28406.01
0.0090,0.9910	-28398.18
0.0055,0.9945	-28357.25
0.0069,0.9931	-28381.30
0.0055,0.9945	-28336.41
0.0072,0.9928	-28410.91
0.0084,0.9916	-28444.82
0.0080,0.9920	-28439.96
0.0071,0.9929	-28391.20
0.0076,0.9924	-28396.27
0.0075,0.9925	-28361.98
0.0081,0.9919	-28425.53
0.0081,0.9919	-28387.04
0.0087,0.9913	-28430.75
0.0083,0.9917	-28368.23
0.0060,0.9940	-28361.65
0.0066,0.9934	-28381.39
0.0088,0.9912	-28412.02
0.0085,0.9915	-28425.80
0.0088,0.9912	-28445.03
0.0081,0.9919	-28396.71
0.0059,0.9941	-28351.51
0.0073,0.9927	-28356.78
0.0076,0.9924	-28415.73
0.0087,0.9913	-28454.44
0.0090,0.9910	-28398.24
0.0079,0.9921	-28439.98
0.0080,0.9920	-28415.87
0.0067,0.9933	-28411.31
0.0078,0.9922	-28401.20
0.0089,0.9911	-28421.55
0.0089,0.9911	-28445.18
0.0084,0.9916	-28468.68
0.0077,0.9923	-28352.64
0.0071,0.9929	-28366.47
0.0067,0.9933	-28366.35
0.0090,0.9910	-28454.71
0.0083,0.9917	-28420.85
0.0094,0.9906	-28413.19
0.0078,0.9922	-28415.78
0.0067,0.9933	-28371.34
0.0074,0.9926	-28366.72
0.0072,0.9928	-28361.68
0.0067,0.9933	-28371.34
0.0085,0.9915	-28444.85
0.0082,0.9918	-28372.75
0.0061,0.9939	-28397.16
0.0079,0.9921	-28420.65
0.0062,0.9938	-28396.92
0.0072,0.9928	-28386.28
0.0074,0.9926	-28391.25
0.0078,0.9922	-28435.14
0.0071,0.9929	-28366.48
0.0065,0.9935	-28391.50
0.0087,0.9913	-28421.30
0.0065,0.9935	-28346.23
0.0082,0.9918	-28411.19
0.0077,0.9923	-28381.70
0.0071,0.9929	-28401.08
0.0093,0.9907	-28403.61
0.0081,0.9919	-28420.75
0.0068,0.9932	-28381.31
0.0083,0.9917	-28416.05
0.0076,0.9924	-28357.21
0.0080,0.9920	-28411.08
0.0083,0.9917	-28392.15
0.0070,0.9930	-28371.38
0.0062,0.9938	-28361.45
0.0087,0.9913	-28478.14
0.0070,0.9930	-28450.76
0.0094,0.9906	-28389.85
0.0082,0.9918	-28425.57
0.0062,0.9938	-28386.79
0.0067,0.9933	-28396.33
0.0078,0.9922	-28381.90
0.0066,0.9934	-28391.45
0.0071,0.9929	-28415.92
0.0074,0.9926	-28484.36
0.0071,0.9929	-28361.53
0.0069,0.9931	-28366.39
0.0084,0.9916	-28430.49
0.0082,0.9918	-28444.77
0.0078,0.9922	-28415.75
0.0068,0.9932	-28406.21
0.0088,0.9912	-28435.64
0.0080,0.9920	-28430.33
0.0087,0.9913	-28378.73
0.0063,0.9937	-28412.05
0.0065,0.9935	-28381.47
0.0067,0.9933	-28356.36
0.0087,0.9913	-28397.54
0.0076,0.9924	-28405.98
0.0078,0.9922	-28401.20
0.0075,0.9925	-28396.18
0.0075,0.9925	-28420.61
0.0059,0.9941	-28341.23
0.0078,0.9922	-28372.18
0.0085,0.9915	-28392.45
0.0074,0.9926	-28440.21
0.0078,0.9922	-28420.62
0.0074,0.9926	-28410.86
0.0071,0.9929	-28376.37
0.0083,0.9917	-28401.73
0.0086,0.9914	-28411.74
0.0068,0.9932	-28431.23
0.0071,0.9929	-28415.94
0.0069,0.9931	-28366.40
0.0065,0.9935	-28381.46
0.0087,0.9913	-28388.26
0.0080,0.9920	-28439.96
0.0074,0.9926	-28454.88
0.0075,0.9925	-28352.17
0.0062,0.9938	-28341.15
0.0088,0.9912	-28383.58
0.0081,0.9919	-28372.70
0.0075,0.9925	-28396.19
0.0076,0.9924	-28415.73
0.0081,0.9919	-28425.56
0.0071,0.9929	-28341.73
0.0087,0.9913	-28463.94
0.0086,0.9914	-28392.75
0.0065,0.9935	-28366.37
0.0077,0.9923	-28430.32
0.0083,0.9917	-28392.12
0.0060,0.9940	-28371.83
0.0076,0.9924	-28401.10
0.0094,0.9906	-28450.44
0.0074,0.9926	-28366.81
0.0075,0.9925	-28401.07
0.0072,0.9928	-28381.34
0.0065,0.9935	-28371.40
0.0075,0.9925	-28366.87
0.0091,0.9909	-28440.69
0.0087,0.9913	-28454.47
0.0081,0.9919	-28439.96
0.0074,0.9926	-28391.25
0.0061,0.9939	-28392.02
0.0077,0.9923	-28367.19
0.0089,0.9911	-28393.21
0.0066,0.9934	-28361.33
0.0084,0.9916	-28387.54
0.0083,0.9917	-28440.00
0.0058,0.9942	-28366.96
0.0098,0.9902	-28437.14
0.0079,0.9921	-28406.11
0.0084,0.9916	-28397.09
0.0092,0.9908	-28440.87
0.0068,0.9932	-28376.33
0.0061,0.9939	-28356.42
0.0081,0.9919	-28425.55
0.0075,0.9925	-28405.96
0.0073,0.9927	-28410.89
0.0087,0.9913	-28435.53
0.0076,0.9924	-28381.67
0.0057,0.9943	-28392.98
0.0074,0.9926	-28371.66
0.0076,0.9924	-28430.34
0.0070,0.9930	-28366.43
0.0100,0.9900	-28456.04
0.0070,0.9930	-28450.65
0.0059,0.9941	-28423.27
0.0068,0.9932	-28351.43
0.0070,0.9930	-28396.17
0.0077,0.9923	-28401.18
0.0093,0.9907	-28417.60
0.0079,0.9921	-28459.33
0.0060,0.9940	-28376.90
0.0076,0.9924	-28396.22
0.0070,0.9930	-28356.56
0.0080,0.9920	-28401.42
0.0080,0.9920	-28439.96
0.0059,0.9941	-28346.35
0.0063,0.9937	-28376.56
0.0069,0.9931	-28376.33
0.0062,0.9938	-28376.72
0.0080,0.9920	-28382.07
0.0078,0.9922	-28449.66
0.0063,0.9937	-28396.83
0.0062,0.9938	-28331.01
0.0067,0.9933	-28411.32
0.0074,0.9926	-28410.85
0.0068,0.9932	-28346.45
0.0079,0.9921	-28420.63
0.0065,0.9935	-28411.56
0.0076,0.9924	-28391.35
0.0070,0.9930	-28381.30
0.0083,0.9917	-28387.32
0.0070,0.9930	-28420.99
0.0071,0.9929	-28445.59
0.0074,0.9926	-28381.44
0.0088,0.9912	-28407.24
0.0065,0.9935	-28421.68
0.0081,0.9919	-28391.92
0.0076,0.9924	-28386.51
0.0073,0.9927	-28405.97
0.0070,0.9930	-28376.34
0.0073,0.9927	-28415.79
0.0066,0.9934	-28381.38
0.0080,0.9920	-28401.39
0.0081,0.9919	-28449.58
0.0065,0.9935	-28391.52
0.0079,0.9921	-28362.68
0.0073,0.9927	-28405.96
0.0059,0.9941	-28407.93
0.0072,0.9928	-28371.50
0.0072,0.9928	-28410.91
0.0053,0.9947	-28373.28
0.0058,0.9942	-28320.73
0.0069,0.9931	-28381.30
0.0061,0.9939	-28397.11
0.0068,0.9932	-28386.30
0.0070,0.9930	-28411.00
0.0061,0.9939	-28366.63
0.0068,0.9932	-28416.14
0.0083,0.9917	-28444.79
0.0069,0.9931	-28401.19
0.0082,0.9918	-28391.98
0.0074,0.9926	-28342.21
0.0064,0.9936	-28346.23
0.0059,0.9941	-28366.94
0.0066,0.9934	-28351.31
0.0065,0.9935	-28341.24
0.0082,0.9918	-28396.80
0.0076,0.9924	-28410.86
0.0062,0.9938	-28371.62
0.0051,0.9949	-28353.04
0.0074,0.9926	-28396.16
0.0071,0.9929	-28361.57
0.0077,0.9923	-28401.19
0.0075,0.9925	-28425.49
0.0057,0.9943	-28403.36
0.0067,0.9933	-28416.36
0.0062,0.9938	-28376.73
0.0069,0.9931	-28406.12
0.0075,0.9925	-28376.66
0.0072,0.9928	-28415.86
0.0054,0.9946	-28347.07
0.0058,0.9942	-28305.30
0.0068,0.9932	-28446.12
0.0081,0.9919	-28387.10
0.0075,0.9925	-28362.05
0.0077,0.9923	-28396.33
0.0065,0.9935	-28401.60
0.0065,0.9935	-28351.28
0.0061,0.9939	-28356.42
0.0074,0.9926	-28376.57
0.0074,0.9926	-28435.36
0.0075,0.9925	-28454.77
0.0064,0.9936	-28411.74
0.0064,0.9936	-28386.57
0.0061,0.9939	-28351.32
0.0078,0.9922	-28396.40
0.0078,0.9922	-28459.37
0.0081,0.9919	-28353.39
0.0065,0.9935	-28361.33
0.0071,0.9929	-28386.26
0.0064,0.9936	-28381.55
0.0070,0.9930	-28371.39
0.0066,0.9934	-28351.30
0.0085,0.9915	-28468.66
0.0076,0.9924	-28420.61
0.0077,0.9923	-28357.38
0.0065,0.9935	-28396.50
0.0077,0.9923	-28401.14
0.0079,0.9921	-28415.81
0.0075,0.9925	-28396.19
0.0069,0.9931	-28366.38
0.0078,0.9922	-28352.80
0.0070,0.9930	-28396.17
0.0074,0.9926	-28430.48
0.0073,0.9927	-28366.69
0.0067,0.9933	-28381.36
0.0074,0.9926	-28415.77
0.0071,0.9929	-28430.72
0.0072,0.9928	-28410.89
0.0063,0.9937	-28331.02
0.0082,0.9918	-28392.00
0.0080,0.9920	-28386.93
0.0079,0.9921	-28410.95
0.0065,0.9935	-28361.35
0.0062,0.9938	-28341.15
0.0064,0.9936	-28391.59
0.0079,0.9921	-28435.14
0.0065,0.9935	-28346.26
0.0067,0.9933	-28391.34
0.0061,0.9939	-28346.26
0.0059,0.9941	-28366.88
0.0063,0.9937	-28422.13
0.0068,0.9932	-28376.33
0.0060,0.9940	-28412.66
0.0066,0.9934	-28336.30
0.0059,0.9941	-28408.01
0.0077,0.9923	-28440.04
0.0069,0.9931	-28391.24
0.0068,0.9932	-28371.34
0.0070,0.9930	-28341.61
0.0066,0.9934	-28351.29
0.0074,0.9926	-28425.55
0.0076,0.9924	-28430.34
0.0070,0.9930	-28430.85
0.0076,0.9924	-28371.84
0.0057,0.9943	-28346.53
0.0065,0.9935	-28376.41
0.0075,0.9925	-28376.68
0.0061,0.9939	-28392.12
0.0070,0.9930	-28381.30
0.0069,0.9931	-28406.13
0.0077,0.9923	-28401.15
0.0063,0.9937	-28386.64
0.0082,0.9918	-28406.43
0.0061,0.9939	-28412.47
0.0059,0.9941	-28377.19
0.0071,0.9929	-28396.14
0.0077,0.9923	-28440.05
0.0068,0.9932	-28381.31
0.0059,0.9941	-28402.70
0.0066,0.9934	-28456.68
0.0071,0.9929	-28460.42
0.0065,0.9935	-28376.42
0.0071,0.9929	-28381.31
0.0062,0.9938	-28402.13
0.0063,0.9937	-28366.45
0.0072,0.9928	-28391.21
0.0069,0.9931	-28440.86
0.0067,0.9933	-28396.34
0.0074,0.9926	-28386.37
0.0050,0.9950	-28353.19
0.0061,0.9939	-28356.41
0.0063,0.9937	-28391.83
0.0074,0.9926	-28391.25
0.0067,0.9933	-28341.37
0.0089,0.9911	-28440.43
0.0059,0.9941	-28341.23
0.0063,0.9937	-28376.59
0.0072,0.9928	-28366.58
0.0076,0.9924	-28420.60
0.0070,0.9930	-28391.20
0.0081,0.9919	-28420.73
0.0053,0.9947	-28357.73
0.0070,0.9930	-28386.25
0.0055,0.9945	-28341.68
0.0065,0.9935	-28421.70
0.0064,0.9936	-28381.57
0.0083,0.9917	-28392.19
0.0059,0.9941	-28336.13
0.0069,0.9931	-28411.10
0.0061,0.9939	-28366.66
0.0073,0.9927	-28410.88
0.0079,0.9921	-28464.17
0.0082,0.9918	-28401.68
0.0074,0.9926	-28376.57
0.0081,0.9919	-28444.77
0.0054,0.9946	-28336.53
0.0066,0.9934	-28356.31
0.0084,0.9916	-28416.24
0.0072,0.9928	-28391.20
0.0064,0.9936	-28366.41
0.0079,0.9921	-28420.65
0.0059,0.9941	-28341.27
0.0070,0.9930	-28401.10
0.0082,0.9918	-28377.64
0.0079,0.9921	-28430.31
0.0069,0.9931	-28356.48
0.0068,0.9932	-28371.34
0.0058,0.9942	-28336.18
0.0066,0.9934	-28416.43
0.0080,0.9920	-28425.50
0.0072,0.9928	-28361.63
0.0084,0.9916	-28387.62
0.0073,0.9927	-28391.22
0.0049,0.9951	-28364.04
0.0091,0.9909	-28398.52
0.0079,0.9921	-28439.98
0.0085,0.9915	-28401.98
0.0082,0.9918	-28420.81
0.0071,0.9929	-28440.54
0.0049,0.9951	-28364.11
0.0089,0.9911	-28435.69
0.0073,0.9927	-28391.23
0.0075,0.9925	-28396.19
0.0086,0.9914	-28387.93
0.0068,0.9932	-28381.32
0.0047,0.9953	-28370.50
0.0081,0.9919	-28406.30
0.0059,0.9941	-28361.72
0.0081,0.9919	-28415.92
0.0079,0.9921	-28420.63
0.0074,0.9926	-28371.62
0.0046,0.9954	-28349.50
0.0096,0.9904	-28436.87
0.0072,0.9928	-28376.45
0.0080,0.9920	-28401.39
0.0070,0.9930	-28376.34
0.0078,0.9922	-28420.62
0.0041,0.9959	-28357.33
0.0090,0.9910	-28449.94
0.0066,0.9934	-28401.46
0.0075,0.9925	-28405.96
0.0085,0.9915	-28425.88
0.0081,0.9919	-28425.54
0.0045,0.9955	-28333.73
0.0072,0.9928	-28450.25
0.0067,0.9933	-28366.34
0.0071,0.9929	-28361.57
0.0078,0.9922	-28377.06
0.0074,0.9926	-28386.39
0.0049,0.9951	-28332.40
0.0062,0.9938	-28351.29
0.0067,0.9933	-28411.39
0.0086,0.9914	-28397.46
0.0093,0.9907	-28403.69
0.0079,0.9921	-28367.55
0.0050,0.9950	-28331.99
0.0066,0.9934	-28361.34
0.0057,0.9943	-28362.11
0.0078,0.9922	-28435.14
0.0086,0.9914	-28397.50
0.0074,0.9926	-28386.33
0.0066,0.9934	-28401.45
0.0068,0.9932	-28361.36
0.0065,0.9935	-28356.31
0.0072,0.9928	-28401.05
0.0078,0.9922	-28464.23
0.0076,0.9924	-28357.27
0.0069,0.9931	-28386.27
0.0074,0.9926	-28425.58
0.0060,0.9940	-28341.21
0.0078,0.9922	-28381.91
0.0081,0.9919	-28449.58
0.0075,0.9925	-28405.96
0.0056,0.9944	-28377.81
0.0072,0.9928	-28420.76
0.0070,0.9930	-28366.46
0.0083,0.9917	-28449.58
0.0074,0.9926	-28376.60
0.0072,0.9928	-28405.99
0.0073,0.9927	-28371.59
0.0065,0.9935	-28331.19
0.0057,0.9943	-28356.84
0.0087,0.9913	-28468.66
0.0071,0.9929	-28391.20
0.0062,0.9938	-28351.31
0.0068,0.9932	-28416.18
0.0059,0.9941	-28356.58
0.0063,0.9937	-28366.45
0.0091,0.9909	-28440.69
0.0084,0.9916	-28435.25
0.0074,0.9926	-28405.96
0.0061,0.9939	-28371.77
0.0067,0.9933	-28361.35
0.0071,0.9929	-28391.20
0.0092,0.9908	-28403.38
0.0070,0.9930	-28391.21
0.0084,0.9916	-28430.52
0.0065,0.9935	-28376.43
0.0079,0.9921	-28396.51
0.0065,0.9935	-28346.25
0.0082,0.9918	-28420.79
0.0074,0.9926	-28376.57
0.0074,0.9926	-28386.37
0.0067,0.9933	-28361.34
0.0077,0.9923	-28420.60
0.0069,0.9931	-28401.20
0.0073,0.9927	-28371.60
0.0067,0.9933	-28376.35
0.0063,0.9937	-28361.41
0.0073,0.9927	-28376.47
0.0077,0.9923	-28376.92
0.0065,0.9935	-28351.28
0.0083,0.9917	-28392.21
0.0068,0.9932	-28371.34
0.0060,0.9940	-28351.39
0.0093,0.9907	-28436.31
0.0076,0.9924	-28405.98
0.0064,0.9936	-28386.53
0.0080,0.9920	-28464.06
0.0082,0.9918	-28420.76
0.0066,0.9934	-28366.35
0.0078,0.9922	-28381.84
0.0067,0.9933	-28381.33
0.0069,0.9931	-28316.66
0.0077,0.9923	-28371.99
0.0070,0.9930	-28391.20
0.0075,0.9925	-28396.19
0.0072,0.9928	-28435.50
0.0079,0.9921	-28386.82
0.0064,0.9936	-28371.43
0.0066,0.9934	-28351.32
0.0065,0.9935	-28336.20
0.0062,0.9938	-28356.39
0.0062,0.9938	-28397.05
0.0087,0.9913	-28449.73
0.0075,0.9925	-28391.32
0.0079,0.9921	-28377.13
0.0082,0.9918	-28416.01
0.0068,0.9932	-28376.33
0.0069,0.9931	-28386.28
0.0069,0.9931	-28401.21
0.0073,0.9927	-28391.23
0.0074,0.9926	-28332.40
0.0089,0.9911	-28398.03
0.0073,0.9927	-28391.22
0.0068,0.9932	-28386.28
0.0066,0.9934	-28376.37
0.0065,0.9935	-28366.37
0.0081,0.9919	-28420.74
0.0079,0.9921	-28410.98
0.0064,0.9936	-28386.61
0.0074,0.9926	-28327.64
0.0059,0.9941	-28382.22
0.0072,0.9928	-28376.41
0.0065,0.9935	-28381.46
0.0071,0.9929	-28376.37
0.0066,0.9934	-28351.30
0.0069,0.9931	-28356.42
0.0060,0.9940	-28387.19
0.0089,0.9911	-28402.82
0.0055,0.9945	-28362.37
0.0076,0.9924	-28430.34
0.0062,0.9938	-28381.75
0.0068,0.9932	-28396.28
0.0074,0.9926	-28401.06
0.0083,0.9917	-28463.93
0.0070,0.9930	-28366.42
0.0060,0.9940	-28371.83
0.0065,0.9935	-28336.20
0.0067,0.9933	-28361.35
0.0079,0.9921	-28406.16
0.0079,0.9921	-28377.21
0.0057,0.9943	-28377.58
0.0067,0.9933	-28411.40
0.0065,0.9935	-28386.51
0.0076,0.9924	-28425.47
0.0076,0.9924	-28391.35
0.0086,0.9914	-28449.66
0.0061,0.9939	-28392.01
0.0059,0.9941	-28356.64
0.0069,0.9931	-28386.26
0.0071,0.9929	-28381.33
0.0081,0.9919	-28382.22
0.0094,0.9906	-28441.07
0.0052,0.9948	-28331.66
0.0073,0.9927	-28391.23
0.0065,0.9935	-28351.28
0.0075,0.9925	-28362.06
0.0071,0.9929	-28391.20
0.0081,0.9919	-28406.26
0.0056,0.9944	-28346.70
0.0082,0.9918	-28430.38
0.0067,0.9933	-28331.37
0.0079,0.9921	-28386.79
0.0060,0.9940	-28387.26
0.0086,0.9914	-28421.13
0.0055,0.9945	-28435.20
0.0081,0.9919	-28488.06
0.0077,0.9923	-28342.94
0.0085,0.9915	-28449.62
0.0068,0.9932	-28366.36
0.0071,0.9929	-28391.20
0.0062,0.9938	-28361.43
0.0078,0.9922	-28420.61
0.0060,0.9940	-28325.85
0.0092,0.9908	-28422.07
0.0068,0.9932	-28391.26
0.0066,0.9934	-28406.44
0.0067,0.9933	-28391.31
0.0074,0.9926	-28342.34
0.0062,0.9938	-28366.53
0.0096,0.9904	-28390.51
0.0060,0.9940	-28366.79
0.0072,0.9928	-28425.72
0.0075,0.9925	-28401.08
0.0071,0.9929	-28391.20
0.0064,0.9936	-28411.74
0.0075,0.9925	-28445.02
0.0059,0.9941	-28392.53
0.0067,0.9933	-28381.33
0.0064,0.9936	-28381.55
0.0090,0.9910	-28417.00
0.0074,0.9926	-28401.06
0.0088,0.9912	-28421.47
0.0072,0.9928	-28376.41
0.0054,0.9946	-28341.72
0.0087,0.9913	-28397.61
0.0079,0.9921	-28386.78
0.0079,0.9921	-28435.14
0.0084,0.9916	-28401.94
0.0069,0.9931	-28406.14
0.0056,0.9944	-28408.86
0.0078,0.9922	-28425.46
0.0087,0.9913	-28369.17
0.0071,0.9929	-28351.72
0.0084,0.9916	-28378.02
0.0062,0.9938	-28356.37
0.0060,0.9940	-28392.33
0.0092,0.9908	-28450.24
0.0085,0.9915	-28421.08
0.0090,0.9910	-28421.73
0.0081,0.9919	-28406.28
0.0061,0.9939	-28397.12
0.0054,0.9946	-28357.37
0.0079,0.9921	-28415.82
0.0083,0.9917	-28420.89
0.0075,0.9925	-28391.33
0.0063,0.9937	-28366.46
0.0058,0.9942	-28356.71
0.0059,0.9941	-28377.05
0.0080,0.9920	-28401.38
0.0070,0.9930	-28356.54
0.0069,0.9931	-28396.21
0.0075,0.9925	-28361.99
0.0067,0.9933	-28346.36
0.0071,0.9929	-28386.26
0.0074,0.9926	-28415.76
0.0062,0.9938	-28361.46
0.0060,0.9940	-28381.99
0.0064,0.9936	-28381.54
0.0076,0.9924	-28449.87
0.0074,0.9926	-28386.34
0.0068,0.9932	-28386.29
0.0072,0.9928	-28391.20
0.0066,0.9934	-28361.33
0.0058,0.9942	-28382.50
0.0067,0.9933	-28386.36
0.0085,0.9915	-28430.61
0.0070,0.9930	-28376.34
0.0059,0.9941	-28397.63
0.0070,0.9930	-28356.52
0.0049,0.9951	-28337.69
0.0063,0.9937	-28371.51
0.0090,0.9910	-28412.34
0.0052,0.9948	-28399.83
0.0061,0.9939	-28381.84
0.0070,0.9930	-28371.40
0.0054,0.9946	-28399.25
0.0053,0.9947	-28326.23
0.0076,0.9924	-28420.61
0.0060,0.9940	-28371.89
0.0068,0.9932	-28401.27
0.0083,0.9917	-28449.58
0.0062,0.9938	-28371.62
0.0061,0.9939	-28387.06
0.0068,0.9932	-28386.31
0.0065,0.9935	-28331.13
0.0074,0.9926	-28386.36
0.0080,0.9920	-28425.50
0.0066,0.9934	-28401.45
0.0054,0.9946	-28357.52
0.0064,0.9936	-28386.62
0.0066,0.9934	-28386.38
0.0086,0.9914	-28411.68
0.0067,0.9933	-28371.34
0.0066,0.9934	-28366.35
0.0059,0.9941	-28356.59
0.0078,0.9922	-28362.43
0.0076,0.9924	-28391.35
0.0079,0.9921	-28401.34
0.0069,0.9931	-28411.09
0.0066,0.9934	-28376.36
0.0057,0.9943	-28367.22
0.0069,0.9931	-28376.33
0.0080,0.9920	-28377.26
0.0080,0.9920	-28382.05
0.0059,0.9941	-28325.85
0.0074,0.9926	-28366.77
0.0058,0.9942	-28336.19
0.0058,0.9942	-28377.28
0.0067,0.9933	-28391.36
0.0082,0.9918	-28372.88
0.0059,0.9941	-28387.32
0.0075,0.9925	-28430.38
0.0064,0.9936	-28366.42
0.0066,0.9934	-28366.35
0.0075,0.9925	-28401.09
0.0069,0.9931	-28421.04
0.0068,0.9932	-28351.41
0.0052,0.9948	-28363.14
0.0074,0.9926	-28415.76
0.0070,0.9930	-28381.30
0.0078,0.9922	-28464.19
0.0071,0.9929	-28386.25
0.0071,0.9929	-28381.33
0.0052,0.9948	-28357.82
0.0080,0.9920	-28406.22
0.0063,0.9937	-28320.93
0.0074,0.9926	-28376.56
0.0070,0.9930	-28361.47
0.0060,0.9940	-28361.63
0.0064,0.9936	-28391.64
0.0093,0.9907	-28468.96
0.0078,0.9922	-28425.46
0.0068,0.9932	-28401.21
0.0083,0.9917	-28401.79
0.0062,0.9938	-28422.42
0.0073,0.9927	-28376.51
0.0075,0.9925	-28357.06
0.0094,0.9906	-28445.77
0.0066,0.9934	-28371.37
0.0092,0.9908	-28412.70
0.0055,0.9945	-28372.75
0.0085,0.9915	-28416.32
0.0074,0.9926	-28396.17
0.0103,0.9897	-28488.65
0.0082,0.9918	-28435.18
0.0077,0.9923	-28342.82
0.0067,0.9933	-28411.29
0.0075,0.9925	-28425.49
0.0077,0.9923	-28401.16
0.0090,0.9910	-28431.13
0.0089,0.9911	-28426.29
0.0080,0.9920	-28382.06
0.0069,0.9931	-28356.47
0.0071,0.9929	-28396.14
0.0089,0.9911	-28454.62
0.0085,0.9915	-28425.84
0.0084,0.9916	-28425.72
0.0058,0.9942	-28331.00
0.0074,0.9926	-28386.36
0.0064,0.9936	-28401.65
0.0084,0.9916	-28406.68
0.0080,0.9920	-28382.17
0.0084,0.9916	-28406.65
0.0062,0.9938	-28386.78
0.0085,0.9915	-28397.27
0.0056,0.9944	-28382.88
0.0076,0.9924	-28488.86
0.0092,0.9908	-28403.42
0.0069,0.9931	-28371.36
0.0064,0.9936	-28406.72
0.0075,0.9925	-28396.19
0.0083,0.9917	-28392.20
0.0063,0.9937	-28396.84
0.0099,0.9901	-28474.27
0.0062,0.9938	-28366.51
0.0066,0.9934	-28426.52
0.0080,0.9920	-28406.25
0.0091,0.9909	-28417.28
0.0060,0.9940	-28382.09
0.0087,0.9913	-28426.02
0.0061,0.9939	-28376.83
0.0065,0.9935	-28366.37
0.0081,0.9919	-28382.32
0.0073,0.9927	-28386.32
0.0059,0.9941	-28377.12
0.0082,0.9918	-28367.96
0.0073,0.9927	-28376.50
0.0072,0.9928	-28366.55
0.0073,0.9927	-28376.47
0.0071,0.9929	-28391.20
0.0084,0.9916	-28401.88
0.0073,0.9927	-28322.52
0.0088,0.9912	-28407.21
0.0070,0.9930	-28396.18
0.0076,0.9924	-28376.71
0.0069,0.9931	-28361.40
0.0069,0.9931	-28356.44
0.0066,0.9934	-28371.37
0.0079,0.9921	-28377.13
0.0078,0.9922	-28410.91
0.0078,0.9922	-28401.25
0.0067,0.9933	-28361.35
0.0073,0.9927	-28376.48
0.0067,0.9933	-28366.35
0.0081,0.9919	-28406.31
0.0081,0.9919	-28382.25
0.0080,0.9920	-28382.06
0.0050,0.9950	-28368.97
0.0083,0.9917	-28444.79
0.0074,0.9926	-28371.66
0.0070,0.9930	-28406.05
0.0089,0.9911	-28449.85
0.0078,0.9922	-28464.20
0.0058,0.9942	-28346.42
0.0066,0.9934	-28351.30
0.0056,0.9944	-28351.88
0.0070,0.9930	-28371.41
0.0085,0.9915	-28421.03
0.0062,0.9938	-28325.91
0.0040,0.9960	-28335.64
0.0067,0.9933	-28336.32
0.0063,0.9937	-28346.22
0.0063,0.9937	-28356.32
0.0085,0.9915	-28397.22
0.0070,0.9930	-28381.30
0.0048,0.9952	-28364.44
0.0073,0.9927	-28435.47
0.0049,0.9951	-28342.89
0.0064,0.9936	-28351.27
0.0079,0.9921	-28381.98
0.0067,0.9933	-28401.33
0.0053,0.9947	-28326.21
0.0065,0.9935	-28426.77
0.0056,0.9944	-28393.18
0.0086,0.9914	-28416.48
0.0085,0.9915	-28449.61
0.0077,0.9923	-28415.75
0.0055,0.9945	-28357.16
0.0056,0.9944	-28393.16
0.0078,0.9922	-28372.16
0.0088,0.9912	-28421.39
0.0093,0.9907	-28384.91
0.0084,0.9916	-28425.72
0.0050,0.9950	-28363.82
0.0057,0.9943	-28325.90
0.0082,0.9918	-28416.02
0.0078,0.9922	-28406.05
0.0089,0.9911	-28463.99
0.0083,0.9917	-28420.87
0.0055,0.9945	-28336.48
0.0075,0.9925	-28381.52
0.0067,0.9933	-28396.34
0.0079,0.9921	-28406.14
0.0074,0.9926	-28420.64
0.0077,0.9923	-28420.60
0.0051,0.9949	-28358.33
0.0056,0.9944	-28362.14
0.0066,0.9934	-28426.57
0.0076,0.9924	-28410.85
0.0084,0.9916	-28411.41
0.0070,0.9930	-28356.54
0.0048,0.9952	-28369.76
0.0066,0.9934	-28421.50
0.0070,0.9930	-28376.34
0.0071,0.9929	-28371.41
0.0080,0.9920	-28396.57
0.0067,0.9933	-28371.34
0.0071,0.9929	-28440.62
0.0067,0.9933	-28391.31
0.0071,0.9929	-28406.01
0.0065,0.9935	-28316.07
0.0074,0.9926	-28430.47
0.0064,0.9936	-28401.68
0.0067,0.9933	-28356.35
0.0076,0.9924	-28410.86
0.0070,0.9930	-28411.07
0.0067,0.9933	-28371.34
0.0059,0.9941	-28377.14
0.0056,0.9944	-28357.02
0.0061,0.9939	-28361.50
0.0063,0.9937	-28381.62
0.0071,0.9929	-28381.31
0.0059,0.9941	-28387.28
0.0064,0.9936	-28386.54
0.0063,0.9937	-28406.86
0.0064,0.9936	-28331.08
0.0052,0.9948	-28373.64
0.0061,0.9939	-28381.94
0.0064,0.9936	-28361.37
0.0077,0.9923	-28415.75
0.0064,0.9936	-28381.58
0.0069,0.9931	-28396.20
0.0068,0.9932	-28356.38
0.0067,0.9933	-28386.32
0.0071,0.9929	-28396.14
0.0087,0.9913	-28392.87
0.0071,0.9929	-28366.49
0.0072,0.9928	-28371.53
0.0071,0.9929	-28327.00
0.0064,0.9936	-28386.57
0.0082,0.9918	-28396.85
0.0090,0.9910	-28440.57
0.0068,0.9932	-28366.37
0.0066,0.9934	-28356.32
0.0066,0.9934	-28371.36
0.0056,0.9944	-28315.60
0.0073,0.9927	-28371.60
0.0095,0.9905	-28422.63
0.0062,0.9938	-28376.69
0.0060,0.9940	-28381.99
0.0073,0.9927	-28415.77
0.0073,0.9927	-28391.21
0.0075,0.9925	-28405.96
0.0087,0.9913	-28407.04
0.0057,0.9943	-28382.64
0.0055,0.9945	-28357.22
0.0076,0.9924	-28415.73
0.0077,0.9923	-28381.73
0.0067,0.9933	-28356.35
0.0089,0.9911	-28426.27
0.0069,0.9931	-28366.39
0.0064,0.9936	-28396.61
0.0070,0.9930	-28396.16
0.0071,0.9929	-28401.07
0.0066,0.9934	-28386.43
0.0084,0.9916	-28454.37
0.0075,0.9925	-28396.19
0.0066,0.9934	-28411.48
0.0057,0.9943	-28346.51
0.0078,0.9922	-28420.62
0.0070,0.9930	-28391.21
0.0087,0.9913	-28416.64
0.0073,0.9927	-28401.05
0.0071,0.9929	-28361.57
0.0058,0.9942	-28402.93
0.0074,0.9926	-28415.76
0.0078,0.9922	-28425.46
0.0077,0.9923	-28406.04
0.0083,0.9917	-28411.26
0.0079,0.9921	-28396.43
0.0062,0.9938	-28371.59
0.0069,0.9931	-28376.33
0.0064,0.9936	-28366.40
0.0070,0.9930	-28381.30
0.0062,0.9938	-28397.00
0.0070,0.9930	-28376.35
0.0054,0.9946	-28341.71
0.0061,0.9939	-28371.71
0.0071,0.9929	-28410.95
0.0060,0.9940	-28361.59
0.0072,0.9928	-28381.37
0.0065,0.9935	-28421.60
0.0053,0.9947	-28357.72
0.0066,0.9934	-28426.49
0.0075,0.9925	-28391.33
0.0066,0.9934	-28351.31
0.0068,0.9932	-28396.26
0.0056,0.9944	-28372.64
0.0056,0.9944	-28367.46
0.0072,0.9928	-28396.13
0.0088,0.9912	-28478.14
0.0075,0.9925	-28386.42
0.0054,0.9946	-28352.17
0.0065,0.9935	-28366.38
0.0063,0.9937	-28401.95
0.0072,0.9928	-28376.41
0.0070,0.9930	-28416.01
0.0062,0.9938	-28330.98
0.0055,0.9945	-28341.63
0.0081,0.9919	-28353.49
0.0078,0.9922	-28391.57
0.0065,0.9935	-28391.50
0.0080,0.9920	-28449.61
0.0086,0.9914	-28416.45
0.0062,0.9938	-28361.47
0.0088,0.9912	-28359.94
0.0066,0.9934	-28346.27
0.0066,0.9934	-28381.42
0.0070,0.9930	-28435.86
0.0094,0.9906	-28394.67
0.0054,0.9946	-28388.67
0.0074,0.9926	-28366.73
0.0075,0.9925	-28376.68
0.0062,0.9938	-28351.29
0.0076,0.9924	-28440.10
0.0091,0.9909	-28459.44
0.0063,0.9937	-28381.60
0.0076,0.9924	-28381.64
0.0053,0.9947	-28331.45
0.0064,0.9936	-28341.20
0.0073,0.9927	-28420.67
0.0086,0.9914	-28402.26
0.0060,0.9940	-28351.40
0.0052,0.9948	-28321.14
0.0081,0.9919	-28382.26
0.0073,0.9927	-28396.14
0.0074,0.9926	-28371.64
0.0087,0.9913	-28421.33
0.0074,0.9926	-28396.15
0.0059,0.9941	-28377.14
0.0097,0.9903	-28423.07
0.0063,0.9937	-28325.97
0.0077,0.9923	-28425.46
0.0082,0.9918	-28401.58
0.0080,0.9920	-28444.77
0.0066,0.9934	-28371.36
0.0083,0.9917	-28425.64
0.0055,0.9945	-28409.07
0.0072,0.9928	-28356.69
0.0067,0.9933	-28346.34
0.0078,0.9922	-28401.20
0.0064,0.9936	-28411.86
0.0086,0.9914	-28440.15
0.0055,0.9945	-28352.10
0.0075,0.9925	-28396.21
0.0073,0.9927	-28376.47
0.0082,0.9918	-28368.09
0.0055,0.9945	-28336.39
0.0080,0.9920	-28411.05
0.0062,0.9938	-28361.45
0.0072,0.9928	-28361.66
0.0064,0.9936	-28361.36
0.0093,0.9907	-28431.68
0.0061,0.9939	-28341.16
0.0072,0.9928	-28401.06
0.0053,0.9947	-28357.65
0.0094,0.9906	-28469.08
0.0074,0.9926	-28396.15
0.0084,0.9916	-28454.36
0.0072,0.9928	-28396.13
0.0055,0.9945	-28393.55
0.0054,0.9946	-28331.30
0.0085,0.9915	-28392.45
0.0076,0.9924	-28386.53
0.0062,0.9938	-28381.75
0.0081,0.9919	-28353.47
0.0080,0.9920	-28411.01
0.0052,0.9948	-28389.42
0.0094,0.9906	-28408.55
0.0079,0.9921	-28406.16
0.0078,0.9922	-28391.50
0.0080,0.9920	-28343.59
0.0066,0.9934	-28366.34
0.0069,0.9931	-28440.89
0.0084,0.9916	-28392.39
0.0072,0.9928	-28386.29
0.0085,0.9915	-28449.62
0.0083,0.9917	-28382.52
0.0076,0.9924	-28391.36
0.0074,0.9926	-28386.34
0.0090,0.9910	-28398.15
0.0057,0.9943	-28325.93
0.0086,0.9914	-28416.41
0.0080,0.9920	-28396.63
0.0062,0.9938	-28386.81
0.0072,0.9928	-28415.83
0.0084,0.9916	-28392.32
0.0067,0.9933	-28436.35
0.0060,0.9940	-28351.42
0.0078,0.9922	-28381.82
0.0063,0.9937	-28366.48
0.0064,0.9936	-28427.05
0.0080,0.9920	-28411.03
0.0072,0.9928	-28445.37
0.0065,0.9935	-28376.44
0.0084,0.9916	-28420.95
0.0063,0.9937	-28386.77
0.0058,0.9942	-28382.44
0.0081,0.9919	-28444.77
0.0069,0.9931	-28361.41
0.0062,0.9938	-28396.94
0.0072,0.9928	-28410.91
0.0072,0.9928	-28361.61
0.0062,0.9938	-28346.22
0.0086,0.9914	-28406.87
0.0082,0.9918	-28377.59
0.0066,0.9934	-28361.33
0.0070,0.9930	-28356.55
0.0074,0.9926	-28381.46
0.0061,0.9939	-28356.44
0.0080,0.9920	-28362.74
0.0085,0.9915	-28416.32
0.0068,0.9932	-28396.24
0.0066,0.9934	-28371.37
0.0073,0.9927	-28405.96
0.0058,0.9942	-28428.77
0.0078,0.9922	-28377.04
0.0076,0.9924	-28435.23
0.0071,0.9929	-28391.20
0.0062,0.9938	-28356.36
0.0069,0.9931	-28361.40
0.0054,0.9946	-28341.81
0.0084,0.9916	-28430.51
0.0075,0.9925	-28405.96
0.0092,0.9908	-28417.42
0.0069,0.9931	-28381.30
0.0070,0.9930	-28371.38
0.0057,0.9943	-28320.75
0.0096,0.9904	-28418.21
0.0084,0.9916	-28444.83
0.0094,0.9906	-28422.42
0.0061,0.9939	-28371.77
0.0077,0.9923	-28396.34
0.0061,0.9939	-28407.47
0.0093,0.9907	-28398.94
0.0090,0.9910	-28435.81
0.0091,0.9909	-28459.45
0.0070,0.9930	-28376.35
0.0075,0.9925	-28376.63
0.0076,0.9924	-28420.60
0.0091,0.9909	-28403.12
0.0091,0.9909	-28431.27
0.0080,0.9920	-28411.05
0.0075,0.9925	-28405.97
0.0067,0.9933	-28381.36
0.0075,0.9925	-28405.97
0.0067,0.9933	-28406.30
0.0086,0.9914	-28435.43
0.0087,0.9913	-28440.26
0.0076,0.9924	-28401.12
0.0079,0.9921	-28411.00
0.0085,0.9915	-28368.81
0.0081,0.9919	-28377.40
0.0076,0.9924	-28440.10
0.0080,0.9920	-28411.02
0.0063,0.9937	-28351.27
0.0081,0.9919	-28454.37
0.0071,0.9929	-28391.20
0.0087,0.9913	-28468.66
0.0079,0.9921	-28377.14
0.0080,0.9920	-28401.37
0.0065,0.9935	-28406.67
0.0066,0.9934	-28356.32
0.0077,0.9923	-28367.08
0.0070,0.9930	-28386.25
0.0075,0.9925	-28362.03
0.0067,0.9933	-28396.31
0.0068,0.9932	-28441.15
0.0050,0.9950	-28326.84
0.0079,0.9921	-28435.14
0.0066,0.9934	-28386.44
0.0079,0.9921	-28382.04
0.0064,0.9936	-28396.66
0.0077,0.9923	-28406.03
0.0056,0.9944	-28341.46
0.0072,0.9928	-28401.05
0.0071,0.9929	-28346.73
0.0088,0.9912	-28421.45
0.0061,0.9939	-28371.76
0.0084,0.9916	-28435.28
0.0084,0.9916	-28444.81
0.0062,0.9938	-28356.37
0.0062,0.9938	-28376.74
0.0071,0.9929	-28406.00
0.0074,0.9926	-28464.68
0.0080,0.9920	-28367.61
0.0092,0.9908	-28464.24
0.0075,0.9925	-28371.74
0.0069,0.9931	-28351.47
0.0078,0.9922	-28435.16
0.0067,0.9933	-28366.34
0.0094,0.9906	-28436.44
0.0085,0.9915	-28406.80
0.0080,0.9920	-28396.54
0.0065,0.9935	-28381.43
0.0079,0.9921	-28348.22
0.0053,0.9947	-28399.62
0.0087,0.9913	-28397.63
0.0081,0.9919	-28387.11
0.0072,0.9928	-28401.05
0.0057,0.9943	-28403.24
0.0069,0.9931	-28411.08
0.0056,0.9944	-28388.11
0.0075,0.9925	-28376.61
0.0095,0.9905	-28432.01
0.0062,0.9938	-28346.23
0.0062,0.9938	-28356.36
0.0074,0.9926	-28391.25
0.0060,0.9940	-28387.26
0.0069,0.9931	-28391.23
0.0087,0.9913	-28392.91
0.0063,0.9937	-28351.28
0.0057,0.9943	-28387.85
0.0071,0.9929	-28366.50
0.0062,0.9938	-28361.46
0.0089,0.9911	-28416.88
0.0080,0.9920	-28396.53
0.0068,0.9932	-28391.30
0.0068,0.9932	-28356.40
0.0084,0.9916	-28368.39
0.0062,0.9938	-28356.40
0.0092,0.9908	-28361.32
0.0076,0.9924	-28401.12
0.0071,0.9929	-28386.26
0.0076,0.9924	-28386.53
0.0082,0.9918	-28372.82
0.0059,0.9941	-28346.36
0.0083,0.9917	-28449.57
0.0069,0.9931	-28396.23
0.0079,0.9921	-28420.66
0.0066,0.9934	-28386.37
0.0077,0.9923	-28449.73
0.0055,0.9945	-28341.66
0.0076,0.9924	-28357.35
0.0073,0.9927	-28386.30
0.0079,0.9921	-28401.31
0.0071,0.9929	-28361.56
0.0085,0.9915	-28387.81
0.0072,0.9928	-28420.74
0.0077,0.9923	-28415.74
0.0084,0.9916	-28363.62
0.0084,0.9916	-28358.93
0.0073,0.9927	-28391.22
0.0061,0.9939	-28376.85
0.0064,0.9936	-28381.57
0.0079,0.9921	-28381.93
0.0085,0.9915	-28430.59
0.0074,0.9926	-28425.54
0.0066,0.9934	-28406.46
0.0071,0.9929	-28381.31
0.0071,0.9929	-28356.65
0.0074,0.9926	-28450.10
0.0066,0.9934	-28376.36
0.0087,0.9913	-28402.32
0.0070,0.9930	-28371.40
0.0073,0.9927	-28376.46
0.0070,0.9930	-28401.10
0.0084,0.9916	-28425.74
0.0065,0.9935	-28356.31
0.0091,0.9909	-28426.55
0.0092,0.9908	-28426.79
0.0073,0.9927	-28391.24
0.0075,0.9925	-28386.41
0.0075,0.9925	-28386.42
0.0067,0.9933	-28361.34
0.0090,0.9910	-28374.86
0.0077,0.9923	-28420.60
0.0071,0.9929	-28415.87
0.0073,0.9927	-28371.57
0.0075,0.9925	-28381.57
0.0090,0.9910	-28412.36
0.0110,0.9890	-28467.27
0.0067,0.9933	-28356.35
0.0068,0.9932	-28401.26
0.0078,0.9922	-28415.77
0.0068,0.9932	-28381.31
0.0082,0.9918	-28425.59
0.0090,0.9910	-28374.66
0.0069,0.9931	-28361.44
0.0092,0.9908	-28398.70
0.0072,0.9928	-28376.42
0.0065,0.9935	-28366.37
0.0093,0.9907	-28445.57
0.0087,0.9913	-28378.73
0.0069,0.9931	-28391.23
0.0076,0.9924	-28396.26
0.0072,0.9928	-28376.40
0.0052,0.9948	-28352.60
0.0088,0.9912	-28426.19
0.0069,0.9931	-28356.48
0.0078,0.9922	-28381.80
0.0065,0.9935	-28376.41
0.0072,0.9928	-28371.51
0.0059,0.9941	-28397.63
0.0077,0.9923	-28352.54
0.0071,0.9929	-28401.07
0.0059,0.9941	-28336.10
0.0060,0.9940	-28361.64
0.0062,0.9938	-28361.45
0.0076,0.9924	-28376.71
0.0077,0.9923	-28391.42
0.0080,0.9920	-28425.49
0.0070,0.9930	-28396.16
0.0059,0.9941	-28371.93
0.0061,0.9939	-28427.63
0.0063,0.9937	-28401.81
0.0076,0.9924	-28420.61
0.0076,0.9924	-28381.62
0.0066,0.9934	-28356.31
0.0071,0.9929	-28376.37
0.0067,0.9933	-28366.34
0.0085,0.9915	-28402.11
0.0066,0.9934	-28376.37
0.0077,0.9923	-28420.60
0.0069,0.9931	-28411.11
0.0067,0.9933	-28351.35
0.0072,0.9928	-28396.13
0.0078,0.9922	-28391.52
0.0068,0.9932	-28351.42
0.0069,0.9931	-28351.51
0.0064,0.9936	-28386.58
0.0077,0.9923	-28420.60
0.0085,0.9915	-28406.85
0.0074,0.9926	-28391.25
0.0082,0.9918	-28444.77
0.0068,0.9932	-28406.26
0.0061,0.9939	-28330.97
0.0064,0.9936	-28376.47
0.0072,0.9928	-28337.00
0.0080,0.9920	-28377.28
0.0078,0.9922	-28444.86
0.0065,0.9935	-28346.26
0.0071,0.9929	-28366.48
0.0058,0.9942	-28361.82
0.0090,0.9910	-28369.98
0.0071,0.9929	-28415.89
0.0072,0.9928	-28341.98
0.0071,0.9929	-28381.33
0.0063,0.9937	-28371.53
0.0052,0.9948	-28363.10
0.0068,0.9932	-28376.33
0.0073,0.9927	-28381.43
0.0066,0.9934	-28406.40
0.0068,0.9932	-28376.33
0.0054,0.9946	-28357.52
0.0054,0.9946	-28357.46
0.0066,0.9934	-28431.59
0.0071,0.9929	-28386.26
0.0069,0.9931	-28376.33
0.0059,0.9941	-28397.68
0.0066,0.9934	-28411.45
0.0050,0.9950	-28379.89
0.0074,0.9926	-28401.06
0.0089,0.9911	-28398.01
0.0067,0.9933	-28381.33
0.0071,0.9929	-28401.08
0.0069,0.9931	-28361.43
0.0061,0.9939	-28346.24
0.0074,0.9926	-28356.92
0.0076,0.9924	-28376.70
0.0075,0.9925	-28430.39
0.0074,0.9926	-28381.44
0.0072,0.9928	-28381.37
0.0063,0.9937	-28341.15
0.0069,0.9931	-28371.35
0.0074,0.9926	-28342.28
0.0056,0.9944	-28351.84
0.0081,0.9919	-28406.28
0.0084,0.9916	-28435.26
0.0065,0.9935	-28401.63
0.0073,0.9927	-28401.05
0.0076,0.9924	-28415.73
0.0067,0.9933	-28346.38
0.0087,0.9913	-28444.95
0.0072,0.9928	-28371.52
0.0074,0.9926	-28401.06
0.0065,0.9935	-28391.53
0.0078,0.9922	-28415.77
0.0064,0.9936	-28341.18
0.0089,0.9911	-28431.03
0.0079,0.9921	-28430.30
0.0074,0.9926	-28371.66
0.0068,0.9932	-28381.32
0.0073,0.9927	-28347.01
0.0074,0.9926	-28425.54
0.0073,0.9927	-28361.79
0.0064,0.9936	-28442.18
0.0069,0.9931	-28386.26
0.0072,0.9928	-28386.27
0.0069,0.9931	-28361.41
0.0061,0.9939	-28371.75
0.0072,0.9928	-28381.34
0.0069,0.9931	-28401.18
0.0069,0.9931	-28351.51
0.0064,0.9936	-28361.37
0.0059,0.9941	-28351.45
0.0062,0.9938	-28351.32
0.0062,0.9938	-28366.54
0.0076,0.9924	-28362.17
0.0070,0.9930	-28371.39
0.0058,0.9942	-28325.88
0.0073,0.9927	-28396.14
0.0071,0.9929	-28391.20
0.0052,0.9948	-28331.74
0.0068,0.9932	-28376.33
0.0078,0.9922	-28410.93
0.0070,0.9930	-28411.02
0.0093,0.9907	-28398.90
0.0069,0.9931	-28396.21
0.0061,0.9939	-28356.44
0.0085,0.9915	-28421.05
0.0071,0.9929	-28406.01
0.0055,0.9945	-28351.96
0.0087,0.9913	-28440.29
0.0054,0.9946	-28393.95
0.0065,0.9935	-28351.28
0.0074,0.9926	-28361.85
0.0064,0.9936	-28376.46
0.0068,0.9932	-28381.32
0.0076,0.9924	-28337.84
0.0057,0.9943	-28362.05
0.0067,0.9933	-28371.35
0.0086,0.9914	-28383.14
0.0062,0.9938	-28417.40
0.0079,0.9921	-28406.12
0.0079,0.9921	-28444.79
0.0057,0.9943	-28336.27
0.0060,0.9940	-28330.97
0.0086,0.9914	-28430.73
0.0075,0.9925	-28415.74
0.0081,0.9919	-28430.33
0.0080,0.9920	-28391.73
0.0060,0.9940	-28361.66
0.0058,0.9942	-28397.89
0.0082,0.9918	-28411.24
0.0074,0.9926	-28352.09
0.0081,0.9919	-28377.53
0.0090,0.9910	-28487.57
0.0073,0.9927	-28386.33
0.0063,0.9937	-28391.82
0.0077,0.9923	-28381.76
0.0074,0.9926	-28381.46
0.0081,0.9919	-28435.16
0.0088,0.9912	-28463.98
0.0078,0.9922	-28401.25
0.0061,0.9939	-28280.12
0.0085,0.9915	-28392.44
0.0073,0.9927	-28396.14
0.0069,0.9931	-28386.27
0.0074,0.9926	-28371.71
0.0085,0.9915	-28387.71
0.0052,0.9948	-28368.29
0.0092,0.9908	-28417.34
0.0068,0.9932	-28351.39
0.0067,0.9933	-28356.33
0.0073,0.9927	-28361.77
0.0085,0.9915	-28392.55
0.0053,0.9947	-28352.46
0.0098,0.9902	-28377.18
0.0066,0.9934	-28376.39
0.0064,0.9936	-28351.27
0.0070,0.9930	-28336.67
0.0096,0.9904	-28399.75
0.0053,0.9947	-28352.34
0.0082,0.9918	-28415.98
0.0070,0.9930	-28406.11
0.0076,0.9924	-28376.75
0.0078,0.9922	-28410.91
0.0080,0.9920	-28420.70
0.0072,0.9928	-28410.93
0.0074,0.9926	-28401.06
0.0064,0.9936	-28346.22
0.0076,0.9924	-28376.75
0.0069,0.9931	-28426.01
0.0078,0.9922	-28410.91
0.0075,0.9925	-28420.62
0.0073,0.9927	-28420.69
0.0063,0.9937	-28346.21
0.0065,0.9935	-28436.67
0.0062,0.9938	-28396.94
0.0081,0.9919	-28425.54
0.0074,0.9926	-28420.65
0.0071,0.9929	-28435.63
0.0056,0.9944	-28356.99
0.0066,0.9934	-28366.35
0.0063,0.9937	-28401.94
0.0077,0.9923	-28391.44
0.0079,0.9921	-28362.61
0.0088,0.9912	-28388.34
0.0052,0.9948	-28378.91
0.0057,0.9943	-28367.14
0.0073,0.9927	-28386.31
0.0079,0.9921	-28439.98
0.0077,0.9923	-28410.87
0.0075,0.9925	-28376.62
0.0059,0.9941	-28387.32
0.0060,0.9940	-28356.51
0.0070,0.9930	-28386.25
0.0078,0.9922	-28401.22
0.0073,0.9927	-28366.68
0.0073,0.9927	-28396.14
0.0079,0.9921	-28386.86
0.0082,0.9918	-28420.80
0.0066,0.9934	-28396.42
0.0072,0.9928	-28351.75
0.0060,0.9940	-28387.13
0.0068,0.9932	-28376.33
0.0069,0.9931	-28406.13
0.0082,0.9918	-28435.20
0.0072,0.9928	-28401.06
0.0080,0.9920	-28420.66
0.0059,0.9941	-28366.81
0.0077,0.9923	-28352.61
0.0054,0.9946	-28383.47
0.0081,0.9919	-28478.43
0.0068,0.9932	-28376.33
0.0082,0.9918	-28363.17
0.0065,0.9935	-28351.28
0.0090,0.9910	-28412.40
0.0059,0.9941	-28423.15
0.0071,0.9929	-28371.45
0.0055,0.9945	-28357.20
0.0086,0.9914	-28406.91
0.0054,0.9946	-28367.90
0.0096,0.9904	-28427.54
0.0061,0.9939	-28392.15
0.0067,0.9933	-28381.34
0.0058,0.9942	-28372.12
0.0087,0.9913	-28440.22
0.0051,0.9949	-28326.58
0.0084,0.9916	-28378.08
0.0073,0.9927	-28425.63
0.0071,0.9929	-28386.26
0.0053,0.9947	-28347.30
0.0075,0.9925	-28386.43
0.0068,0.9932	-28346.47
0.0079,0.9921	-28435.14
0.0087,0.9913	-28364.56
0.0081,0.9919	-28391.86
0.0060,0.9940	-28387.21
0.0083,0.9917	-28416.11
0.0081,0.9919	-28396.65
0.0071,0.9929	-28425.77
0.0074,0.9926	-28381.45
0.0083,0.9917	-28392.25
0.0060,0.9940	-28361.65
0.0072,0.9928	-28401.06
0.0082,0.9918	-28430.41
0.0067,0.9933	-28346.34
0.0084,0.9916	-28444.81
0.0080,0.9920	-28396.55
0.0059,0.9941	-28341.24
0.0065,0.9935	-28416.59
0.0083,0.9917	-28396.89
0.0065,0.9935	-28356.31
0.0100,0.9900	-28469.83
0.0076,0.9924	-28386.50
0.0070,0.9930	-28391.22
0.0063,0.9937	-28396.79
0.0076,0.9924	-28357.20
0.0064,0.9936	-28361.37
0.0080,0.9920	-28406.18
0.0074,0.9926	-28401.06
0.0073,0.9927	-28356.88
0.0062,0.9938	-28356.37
0.0071,0.9929	-28386.26
0.0069,0.9931	-28376.33
0.0074,0.9926	-28435.33
0.0072,0.9928	-28499.55
0.0061,0.9939	-28330.97
0.0078,0.9922	-28401.22
0.0077,0.9923	-28371.95
0.0074,0.9926	-28381.47
0.0079,0.9921	-28415.83
0.0082,0.9918	-28425.58
0.0068,0.9932	-28361.38
0.0064,0.9936	-28366.41
0.0095,0.9905	-28404.15
0.0084,0.9916	-28406.71
0.0082,0.9918	-28425.62
0.0075,0.9925	-28391.34
0.0071,0.9929	-28361.52
0.0060,0.9940	-28351.42
0.0073,0.9927	-28371.55
0.0077,0.9923	-28415.75
0.0078,0.9922	-28430.31
0.0078,0.9922	-28415.75
0.0080,0.9920	-28435.14
0.0061,0.9939	-28422.74
0.0064,0.9936	-28396.67
0.0068,0.9932	-28416.19
0.0079,0.9921	-28444.79
0.0074,0.9926	-28347.17
0.0071,0.9929	-28351.68
0.0064,0.9936	-28396.67
0.0061,0.9939	-28361.55
0.0073,0.9927	-28346.94
0.0062,0.9938	-28371.57
0.0072,0.9928	-28376.45
0.0070,0.9930	-28401.11
0.0066,0.9934	-28391.38
0.0062,0.9938	-28376.73
0.0064,0.9936	-28361.35
0.0061,0.9939	-28376.79
0.0068,0.9932	-28376.33
0.0085,0.9915	-28468.67
0.0074,0.9926	-28381.47
0.0064,0.9936	-28366.40
0.0073,0.9927	-28356.80
0.0076,0.9924	-28362.08
0.0073,0.9927	-28415.78
0.0083,0.9917	-28387.31
0.0065,0.9935	-28391.48
0.0065,0.9935	-28356.31
0.0078,0.9922	-28420.61
0.0077,0.9923	-28410.90
0.0084,0.9916	-28359.04
0.0092,0.9908	-28426.86
0.0061,0.9939	-28397.17
0.0066,0.9934	-28381.37
0.0071,0.9929	-28381.31
0.0068,0.9932	-28391.30
0.0086,0.9914	-28425.98
0.0079,0.9921	-28425.47
0.0069,0.9931	-28371.35
0.0064,0.9936	-28361.37
0.0069,0.9931	-28366.41
0.0073,0.9927	-28371.55
0.0072,0.9928	-28396.13
0.0095,0.9905	-28459.85
0.0068,0.9932	-28391.28
0.0066,0.9934	-28401.51
0.0062,0.9938	-28356.39
0.0077,0.9923	-28386.63
0.0063,0.9937	-28346.22
0.0082,0.9918	-28439.98
0.0071,0.9929	-28401.07
0.0070,0.9930	-28386.25
0.0070,0.9930	-28336.71
0.0090,0.9910	-28478.16
0.0077,0.9923	-28410.89
0.0075,0.9925	-28362.01
0.0063,0.9937	-28391.79
0.0085,0.9915	-28425.83
0.0075,0.9925	-28366.87
0.0079,0.9921	-28435.14
0.0079,0.9921	-28406.16
0.0071,0.9929	-28381.31
0.0064,0.9936	-28416.87
0.0076,0.9924	-28420.60
0.0061,0.9939	-28356.44
0.0076,0.9924	-28420.60
0.0092,0.9908	-28412.77
0.0070,0.9930	-28401.14
0.0074,0.9926	-28410.85
0.0093,0.9907	-28431.60
0.0060,0.9940	-28346.30
0.0073,0.9927	-28405.97
0.0078,0.9922	-28386.68
0.0061,0.9939	-28356.42
0.0097,0.9903	-28390.63
0.0071,0.9929	-28440.63
0.0069,0.9931	-28346.55
0.0073,0.9927	-28386.30
0.0077,0.9923	-28401.18
0.0069,0.9931	-28381.30
0.0072,0.9928	-28391.21
0.0069,0.9931	-28346.47
0.0069,0.9931	-28386.26
0.0064,0.9936	-28381.53
0.0068,0.9932	-28356.37
0.0080,0.9920	-28372.44
0.0071,0.9929	-28401.09
0.0072,0.9928	-28401.06
0.0069,0.9931	-28351.46
0.0052,0.9948	-28384.03
0.0064,0.9936	-28315.93
0.0072,0.9928	-28341.95
0.0071,0.9929	-28410.98
0.0082,0.9918	-28382.45
0.0076,0.9924	-28469.37
0.0071,0.9929	-28415.88
0.0066,0.9934	-28341.25
0.0068,0.9932	-28351.44
0.0072,0.9928	-28366.54
0.0080,0.9920	-28386.95
0.0063,0.9937	-28432.20
0.0076,0.9924	-28415.73
0.0070,0.9930	-28406.09
0.0063,0.9937	-28371.51
0.0068,0.9932	-28396.24
0.0069,0.9931	-28346.52
0.0066,0.9934	-28401.43
0.0062,0.9938	-28381.81
0.0063,0.9937	-28351.27
0.0071,0.9929	-28361.54
0.0097,0.9903	-28418.57
0.0076,0.9924	-28430.35
0.0063,0.9937	-28356.35
0.0066,0.9934	-28406.51
0.0058,0.9942	-28372.12
0.0072,0.9928	-28401.06
0.0091,0.9909	-28412.53
0.0082,0.9918	-28377.71
0.0075,0.9925	-28440.13
0.0063,0.9937	-28386.67
0.0058,0.9942	-28351.59
0.0078,0.9922	-28430.31
0.0092,0.9908	-28422.18
0.0076,0.9924	-28381.67
0.0078,0.9922	-28386.70
0.0063,0.9937	-28381.68
0.0064,0.9936	-28386.63
0.0070,0.9930	-28356.55
0.0074,0.9926	-28440.25
0.0068,0.9932	-28391.26
0.0072,0.9928	-28356.73
0.0056,0.9944	-28357.01
0.0072,0.9928	-28371.51
0.0082,0.9918	-28425.60
0.0066,0.9934	-28361.33
0.0069,0.9931	-28371.35
0.0067,0.9933	-28386.35
0.0051,0.9949	-28337.16
0.0066,0.9934	-28366.35
0.0067,0.9933	-28356.37
0.0054,0.9946	-28357.43
0.0066,0.9934	-28336.27
0.0062,0.9938	-28371.57
0.0071,0.9929	-28376.37
0.0056,0.9944	-28398.63
0.0068,0.9932	-28391.28
0.0067,0.9933	-28381.33
0.0061,0.9939	-28356.43
0.0069,0.9931	-28361.40
0.0066,0.9934	-28411.41
0.0066,0.9934	-28381.38
0.0071,0.9929	-28376.39
0.0070,0.9930	-28420.92
0.0063,0.9937	-28411.91
0.0072,0.9928	-28420.78
0.0076,0.9924	-28440.06
0.0068,0.9932	-28401.27
0.0066,0.9934	-28396.48
0.0060,0.9940	-28412.73
0.0071,0.9929	-28410.96
0.0074,0.9926	-28396.15
0.0063,0.9937	-28325.97
0.0063,0.9937	-28371.54
0.0066,0.9934	-28371.36
0.0071,0.9929	-28356.62
0.0076,0.9924	-28444.94
0.0077,0.9923	-28425.46
0.0072,0.9928	-28366.56
0.0057,0.9943	-28372.29
0.0068,0.9932	-28351.40
0.0085,0.9915	-28425.84
0.0077,0.9923	-28415.74
0.0085,0.9915	-28449.62
0.0069,0.9931	-28406.15
0.0057,0.9943	-28336.21
0.0068,0.9932	-28386.30
0.0078,0.9922	-28377.00
0.0087,0.9913	-28426.08
0.0082,0.9918	-28401.66
0.0069,0.9931	-28396.23
0.0071,0.9929	-28386.26
0.0075,0.9925	-28381.53
0.0075,0.9925	-28420.62
0.0078,0.9922	-28435.16
0.0076,0.9924	-28444.96
0.0060,0.9940	-28361.66
0.0077,0.9923	-28406.03
0.0070,0.9930	-28401.12
0.0083,0.9917	-28377.88
0.0068,0.9932	-28371.35
0.0064,0.9936	-28401.68
0.0083,0.9917	-28382.55
0.0071,0.9929	-28396.14
0.0066,0.9934	-28371.36
0.0073,0.9927	-28410.87
0.0070,0.9930	-28415.99
0.0074,0.9926	-28405.95
0.0085,0.9915	-28401.98
0.0066,0.9934	-28371.38
0.0079,0.9921	-28362.62
0.0056,0.9944	-28356.96
0.0064,0.9936	-28386.56
0.0062,0.9938	-28351.30
0.0093,0.9907	-28412.88
0.0066,0.9934	-28401.41
0.0096,0.9904	-28455.44
0.0053,0.9947	-28331.44
0.0067,0.9933	-28351.34
0.0074,0.9926	-28415.74
0.0082,0.9918	-28377.56
0.0056,0.9944	-28336.31
0.0091,0.9909	-28370.27
0.0057,0.9943	-28372.31
0.0068,0.9932	-28381.30
0.0065,0.9935	-28351.28
0.0077,0.9923	-28352.66
0.0055,0.9945	-28378.10
0.0079,0.9921	-28372.28
0.0057,0.9943	-28382.75
0.0067,0.9933	-28381.33
0.0075,0.9925	-28386.40
0.0071,0.9929	-28396.14
0.0056,0.9944	-28346.68
0.0086,0.9914	-28454.42
0.0064,0.9936	-28371.47
0.0074,0.9926	-28386.34
0.0075,0.9925	-28391.30
0.0069,0.9931	-28455.79
0.0066,0.9934	-28396.44
0.0074,0.9926	-28405.96
0.0081,0.9919	-28372.66
0.0076,0.9924	-28357.35
0.0079,0.9921	-28396.43
0.0084,0.9916	-28382.72
0.0071,0.9929	-28361.56
0.0072,0.9928	-28405.98
0.0072,0.9928	-28415.86
0.0070,0.9930	-28351.60
0.0070,0.9930	-28391.21
0.0082,0.9918	-28382.39
0.0076,0.9924	-28376.77
0.0066,0.9934	-28336.29
0.0067,0.9933	-28381.33
0.0070,0.9930	-28341.67
0.0069,0.9931	-28361.43
0.0088,0.9912	-28388.34
0.0064,0.9936	-28376.49
0.0076,0.9924	-28396.23
0.0082,0.9918	-28415.99
0.0073,0.9927	-28381.41
0.0067,0.9933	-28371.34
0.0088,0.9912	-28430.84
0.0060,0.9940	-28320.75
0.0084,0.9916	-28406.66
0.0069,0.9931	-28381.30
0.0080,0.9920	-28358.08
0.0081,0.9919	-28411.14
0.0079,0.9921	-28381.91
0.0061,0.9939	-28356.47
0.0077,0.9923	-28391.41
0.0076,0.9924	-28396.25
0.0070,0.9930	-28356.53
0.0087,0.9913	-28449.70
0.0078,0.9922	-28406.08
0.0077,0.9923	-28425.46
0.0083,0.9917	-28416.07
0.0071,0.9929	-28351.65
0.0069,0.9931	-28421.00
0.0072,0.9928	-28396.13
0.0074,0.9926	-28425.56
0.0066,0.9934	-28421.49
0.0066,0.9934	-28421.53
0.0079,0.9921	-28362.58
0.0078,0.9922	-28372.10
0.0066,0.9934	-28336.25
0.0060,0.9940	-28346.29
0.0071,0.9929	-28381.31
0.0074,0.9926	-28420.67
0.0079,0.9921	-28377.17
0.0062,0.9938	-28437.73
0.0060,0.9940	-28397.37
0.0079,0.9921	-28391.61
0.0062,0.9938	-28381.79
0.0075,0.9925	-28410.85
0.0073,0.9927	-28371.53
0.0067,0.9933	-28426.26
0.0058,0.9942	-28356.79
0.0080,0.9920	-28382.07
0.0078,0.9922	-28386.71
0.0074,0.9926	-28322.58
0.0080,0.9920	-28382.11
0.0074,0.9926	-28440.21
0.0053,0.9947	-28357.56
0.0075,0.9925	-28430.38
0.0079,0.9921	-28396.49
0.0081,0.9919	-28401.54
0.0085,0.9915	-28487.70
0.0067,0.9933	-28381.34
0.0069,0.9931	-28396.22
0.0072,0.9928	-28366.59
0.0073,0.9927	-28415.80
0.0068,0.9932	-28401.23
0.0075,0.9925	-28401.09
0.0070,0.9930	-28341.72
0.0075,0.9925	-28449.90
0.0068,0.9932	-28376.33
0.0075,0.9925	-28410.85
0.0072,0.9928	-28391.21
0.0068,0.9932	-28386.30
0.0074,0.9926	-28381.44
0.0064,0.9936	-28366.40
0.0077,0.9923	-28357.50
0.0068,0.9932	-28356.38
0.0067,0.9933	-28416.30
0.0071,0.9929	-28376.37
0.0082,0.9918	-28439.98
0.0069,0.9931	-28406.15
0.0075,0.9925	-28386.39
0.0068,0.9932	-28401.23
0.0075,0.9925	-28405.96
0.0069,0.9931	-28396.20
0.0081,0.9919	-28430.35
0.0057,0.9943	-28377.46
0.0073,0.9927	-28391.23
0.0081,0.9919	-28396.74
0.0072,0.9928	-28396.13
0.0067,0.9933	-28406.29
0.0074,0.9926	-28342.24
0.0056,0.9944	-28351.92
0.0073,0.9927	-28410.87
0.0068,0.9932	-28396.28
0.0068,0.9932	-28406.27
0.0082,0.9918	-28444.77
0.0067,0.9933	-28351.36
0.0077,0.9923	-28376.92
0.0077,0.9923	-28396.32
0.0071,0.9929	-28366.47
0.0077,0.9923	-28386.56
0.0070,0.9930	-28376.35
0.0062,0.9938	-28376.64
0.0060,0.9940	-28341.18
0.0081,0.9919	-28358.33
0.0086,0.9914	-28454.43
0.0075,0.9925	-28366.82
0.0064,0.9936	-28351.27
0.0069,0.9931	-28381.30
0.0065,0.9935	-28371.38
0.0080,0.9920	-28396.54
0.0076,0.9924	-28420.60
0.0075,0.9925	-28420.62
0.0061,0.9939	-28376.80
0.0079,0.9921	-28381.92
0.0063,0.9937	-28406.92
0.0072,0.9928	-28396.13
0.0068,0.9932	-28356.40
0.0081,0.9919	-28473.60
0.0079,0.9921	-28425.48
0.0069,0.9931	-28411.09
0.0072,0.9928	-28361.60
0.0070,0.9930	-28396.16
0.0070,0.9930	-28411.07
0.0075,0.9925	-28391.30
0.0070,0.9930	-28371.38
0.0078,0.9922	-28420.61
0.0074,0.9926	-28435.36
0.0071,0.9929	-28420.80
0.0068,0.9932	-28396.23
0.0074,0.9926	-28361.81
0.0067,0.9933	-28371.34
0.0081,0.9919	-28435.16
0.0069,0.9931	-28391.24
0.0061,0.9939	-28387.01
0.0070,0.9930	-28376.34
0.0077,0.9923	-28391.46
0.0072,0.9928	-28386.27
0.0078,0.9922	-28420.62
0.0074,0.9926	-28420.64
0.0069,0.9931	-28381.30
0.0069,0.9931	-28391.25
0.0069,0.9931	-28401.17
0.0068,0.9932	-28376.33
0.0080,0.9920	-28435.14
0.0087,0.9913	-28364.42
0.0072,0.9928	-28381.36
0.0075,0.9925	-28361.95
0.0066,0.9934	-28376.39
0.0065,0.9935	-28371.41
0.0070,0.9930	-28401.10
0.0095,0.9905	-28413.34
0.0076,0.9924	-28381.63
0.0078,0.9922	-28439.98
0.0068,0.9932	-28381.31
0.0063,0.9937	-28376.54
0.0083,0.9917	-28416.10
0.0089,0.9911	-28407.47
0.0077,0.9923	-28415.74
0.0085,0.9915	-28421.10
0.0065,0.9935	-28401.59
0.0070,0.9930	-28430.78
0.0083,0.9917	-28406.52
0.0089,0.9911	-28402.74
0.0080,0.9920	-28435.14
0.0070,0.9930	-28346.57
0.0082,0.9918	-28411.19
0.0069,0.9931	-28411.14
0.0088,0.9912	-28440.39
0.0086,0.9914	-28392.64
0.0076,0.9924	-28415.73
0.0067,0.9933	-28361.34
0.0085,0.9915	-28387.77
0.0080,0.9920	-28362.78
0.0077,0.9923	-28420.60
0.0070,0.9930	-28391.20
0.0068,0.9932	-28426.09
