#isoforms=['ENSG00000186575.SE.4.A.up_ENSG00000186575.SE.4.A.SE1_ENSG00000186575.SE.4.A.dn','ENSG00000186575.SE.4.B.up_ENSG00000186575.SE.4.B.dn']	exon_lens=('ENSG00000186575.SE.4.A.up',128),('ENSG00000186575.SE.4.A.SE1',163),('ENSG00000186575.SE.4.A.dn',3847),('ENSG00000186575.SE.4.B.up',128),('ENSG00000186575.SE.4.B.dn',194)	iters=5000	burn_in=500	lag=10	percent_accept=94.66	proposal_type=drift	counts=(0,0):248,(0,1):1,(1,0):1214,(1,1):66	assigned_counts=0:1275,1:6	chrom=chr22	strand=+	mRNA_starts=29678196,29678196	mRNA_ends=29698598,29694945
sampled_psi	log_score
0.8882,0.1118	-10668.42
0.8961,0.1039	-10660.01
0.8879,0.1121	-10653.93
0.7587,0.2413	-10679.62
0.8537,0.1463	-10661.15
0.8650,0.1350	-10660.74
0.8962,0.1038	-10670.79
0.8608,0.1392	-10669.99
0.8849,0.1151	-10662.23
0.7485,0.2515	-10679.87
0.8740,0.1260	-10664.33
0.8543,0.1457	-10675.28
0.8870,0.1130	-10668.39
0.8252,0.1748	-10676.45
0.9005,0.0995	-10651.16
0.7608,0.2392	-10679.57
0.8994,0.1006	-10662.17
0.8432,0.1568	-10668.32
0.8677,0.1323	-10664.41
0.8309,0.1691	-10665.37
0.9079,0.0921	-10662.22
0.7727,0.2273	-10668.36
0.8911,0.1089	-10657.98
0.8429,0.1571	-10668.33
0.8672,0.1328	-10666.29
0.8242,0.1758	-10673.36
0.9125,0.0875	-10659.94
0.7210,0.2790	-10681.80
0.8715,0.1285	-10666.27
0.8731,0.1269	-10666.27
0.8704,0.1296	-10675.80
0.8329,0.1671	-10665.30
0.8964,0.1036	-10662.17
0.7416,0.2584	-10680.07
0.8691,0.1309	-10670.07
0.8638,0.1362	-10664.47
0.8652,0.1348	-10660.73
0.8267,0.1733	-10676.47
0.8895,0.1105	-10662.19
0.7558,0.2442	-10677.42
0.8676,0.1324	-10658.77
0.8599,0.1401	-10664.54
0.8616,0.1384	-10668.17
0.8297,0.1703	-10676.50
0.9086,0.0914	-10662.23
0.7882,0.2118	-10673.97
0.8416,0.1584	-10670.02
0.8683,0.1317	-10656.86
0.8523,0.1477	-10662.96
0.8511,0.1489	-10673.46
0.8963,0.1037	-10664.32
0.7859,0.2141	-10671.44
0.8017,0.1983	-10669.46
0.8343,0.1657	-10673.33
0.8575,0.1425	-10661.00
0.8464,0.1536	-10680.23
0.9062,0.0938	-10666.74
0.7691,0.2309	-10678.21
0.8067,0.1933	-10664.99
0.8461,0.1539	-10668.28
0.8556,0.1444	-10666.41
0.8338,0.1662	-10662.04
0.8858,0.1142	-10660.18
0.7538,0.2462	-10671.90
0.8072,0.1928	-10673.55
0.8383,0.1617	-10684.86
0.8511,0.1489	-10669.97
0.8084,0.1916	-10674.97
0.8910,0.1090	-10655.88
0.7591,0.2409	-10680.75
0.8214,0.1786	-10673.37
0.8411,0.1589	-10673.36
0.8408,0.1592	-10675.02
0.7980,0.2020	-10672.35
0.8717,0.1283	-10660.52
0.7651,0.2349	-10677.12
0.8235,0.1765	-10673.36
0.8248,0.1752	-10681.10
0.8228,0.1772	-10681.04
0.7951,0.2049	-10683.29
0.8630,0.1370	-10670.01
0.7857,0.2143	-10667.55
0.8180,0.1820	-10676.41
0.8145,0.1855	-10677.88
0.7873,0.2127	-10674.00
0.7848,0.2152	-10676.66
0.8353,0.1647	-10668.46
0.7568,0.2432	-10675.12
0.8041,0.1959	-10677.84
0.8430,0.1570	-10670.01
0.7959,0.2041	-10669.69
0.8164,0.1836	-10664.47
0.8436,0.1564	-10671.69
0.7736,0.2264	-10669.53
0.7741,0.2259	-10675.65
0.8730,0.1270	-10670.13
0.8171,0.1829	-10668.92
0.8334,0.1666	-10666.89
0.8701,0.1299	-10668.18
0.7674,0.2326	-10684.22
0.8092,0.1908	-10676.41
0.8642,0.1358	-10679.27
0.8165,0.1835	-10676.41
0.8204,0.1796	-10673.38
0.8779,0.1221	-10670.22
0.7333,0.2667	-10685.41
0.7761,0.2239	-10673.11
0.8789,0.1211	-10666.28
0.8247,0.1753	-10670.25
0.8388,0.1612	-10676.64
0.8421,0.1579	-10659.97
0.7385,0.2615	-10681.21
0.7906,0.2094	-10676.57
0.8964,0.1036	-10666.48
0.8363,0.1637	-10665.18
0.8389,0.1611	-10674.99
0.8306,0.1694	-10670.15
0.7546,0.2454	-10678.59
0.7691,0.2309	-10670.99
0.9120,0.0880	-10659.94
0.8662,0.1338	-10662.56
0.8127,0.1873	-10680.80
0.8152,0.1848	-10668.98
0.8083,0.1917	-10670.65
0.7974,0.2026	-10672.37
0.9067,0.0933	-10655.39
0.8269,0.1731	-10671.78
0.7985,0.2015	-10665.45
0.7958,0.2042	-10672.42
0.7966,0.2034	-10675.13
0.8140,0.1860	-10673.45
0.9136,0.0864	-10659.94
0.8407,0.1593	-10676.68
0.8124,0.1876	-10688.13
0.7739,0.2261	-10671.97
0.8046,0.1954	-10672.18
0.8208,0.1792	-10671.86
0.9243,0.0757	-10652.55
0.8096,0.1904	-10674.96
0.7610,0.2390	-10683.04
0.7883,0.2117	-10679.23
0.8044,0.1956	-10669.36
0.8355,0.1645	-10671.71
0.9120,0.0880	-10659.94
0.8023,0.1977	-10665.24
0.7633,0.2367	-10681.86
0.7758,0.2242	-10673.12
0.7879,0.2121	-10668.73
0.8471,0.1529	-10669.98
0.9071,0.0929	-10657.65
0.8497,0.1503	-10664.78
0.7394,0.2606	-10683.27
0.8323,0.1677	-10668.52
0.7993,0.2007	-10672.32
0.8427,0.1573	-10673.37
0.9172,0.0828	-10662.37
0.8347,0.1653	-10670.09
0.7151,0.2849	-10683.87
0.8353,0.1647	-10676.58
0.7996,0.2004	-10670.93
0.8441,0.1559	-10659.86
0.9180,0.0820	-10657.56
0.8323,0.1677	-10674.93
0.7289,0.2711	-10675.58
0.8117,0.1883	-10670.56
0.8065,0.1935	-10670.71
0.8758,0.1242	-10660.41
0.9182,0.0818	-10662.39
0.8738,0.1262	-10666.27
0.7217,0.2783	-10678.91
0.8017,0.1983	-10676.44
0.8245,0.1755	-10673.35
0.8695,0.1305	-10660.59
0.9076,0.0924	-10659.93
0.8809,0.1191	-10660.28
0.7614,0.2386	-10671.44
0.8204,0.1796	-10667.31
0.8449,0.1551	-10671.69
0.8614,0.1386	-10668.17
0.9032,0.0968	-10659.95
0.8785,0.1215	-10664.30
0.7831,0.2169	-10680.54
0.8278,0.1722	-10663.92
0.8563,0.1437	-10664.62
0.8720,0.1280	-10675.87
0.9008,0.0992	-10659.97
0.8724,0.1276	-10664.35
0.7851,0.2149	-10684.43
0.8388,0.1612	-10668.40
0.8824,0.1176	-10656.22
0.8606,0.1394	-10668.17
0.9158,0.0842	-10659.95
0.8826,0.1174	-10672.35
0.7790,0.2210	-10676.77
0.8196,0.1804	-10668.85
0.8632,0.1368	-10658.96
0.8694,0.1306	-10662.49
0.9267,0.0733	-10652.50
0.8759,0.1241	-10658.46
0.7969,0.2031	-10672.39
0.7949,0.2051	-10675.15
0.8643,0.1357	-10666.31
0.8642,0.1358	-10673.72
0.9375,0.0625	-10655.02
0.8708,0.1292	-10673.91
0.8464,0.1536	-10661.45
0.7524,0.2476	-10680.88
0.8458,0.1542	-10664.88
0.8769,0.1231	-10664.31
0.9324,0.0676	-10649.76
0.8869,0.1131	-10662.21
0.8341,0.1659	-10679.79
0.7523,0.2477	-10678.66
0.8670,0.1330	-10675.67
0.8594,0.1406	-10668.17
0.9193,0.0807	-10662.42
0.8932,0.1068	-10657.93
0.8430,0.1570	-10676.73
0.7126,0.2874	-10680.32
0.8622,0.1378	-10662.67
0.8198,0.1802	-10671.87
0.9138,0.0862	-10664.66
0.8813,0.1187	-10658.27
0.8522,0.1478	-10662.96
0.7366,0.2634	-10679.21
0.8688,0.1312	-10660.61
0.8132,0.1868	-10677.87
0.9279,0.0721	-10662.69
0.8627,0.1373	-10664.49
0.8450,0.1550	-10663.21
0.7422,0.2578	-10681.11
0.8487,0.1513	-10661.35
0.7854,0.2146	-10674.05
0.9088,0.0912	-10650.73
0.8575,0.1425	-10668.18
0.7946,0.2054	-10676.51
0.7297,0.2703	-10678.51
0.8843,0.1157	-10658.17
0.8194,0.1806	-10664.32
0.8943,0.1057	-10668.58
0.8720,0.1280	-10664.35
0.7362,0.2638	-10681.28
0.7230,0.2770	-10676.92
0.8702,0.1298	-10670.08
0.8427,0.1573	-10670.01
0.8977,0.1023	-10659.99
0.8669,0.1331	-10660.67
0.7526,0.2474	-10681.98
0.7490,0.2510	-10682.04
0.8762,0.1238	-10658.44
0.8518,0.1482	-10659.48
0.9183,0.0817	-10652.72
0.8870,0.1130	-10664.27
0.7655,0.2345	-10675.93
0.7634,0.2366	-10678.35
0.8826,0.1174	-10666.30
0.8694,0.1306	-10671.97
0.8980,0.1020	-10653.46
0.8693,0.1307	-10662.49
0.7755,0.2245	-10683.05
0.7675,0.2325	-10678.25
0.8682,0.1318	-10660.63
0.8493,0.1507	-10659.60
0.8901,0.1099	-10660.10
0.8725,0.1275	-10662.43
0.7994,0.2006	-10670.93
0.7945,0.2055	-10671.11
0.8532,0.1468	-10668.21
0.8751,0.1249	-10664.32
0.8816,0.1184	-10668.30
0.8711,0.1289	-10673.92
0.8034,0.1966	-10676.43
0.7646,0.2354	-10674.79
0.8510,0.1490	-10661.26
0.8823,0.1177	-10668.31
0.9124,0.0876	-10657.59
0.8885,0.1115	-10666.35
0.8049,0.1951	-10670.75
0.7782,0.2218	-10673.02
0.8262,0.1738	-10676.46
0.8897,0.1103	-10660.10
0.9220,0.0780	-10655.08
0.8964,0.1036	-10657.85
0.7946,0.2054	-10676.51
0.7800,0.2200	-10674.22
0.8444,0.1556	-10675.07
0.8909,0.1091	-10660.09
0.9001,0.0999	-10666.57
0.8909,0.1091	-10666.38
0.8028,0.1972	-10672.22
0.7936,0.2064	-10673.83
0.8386,0.1614	-10671.70
0.8736,0.1264	-10677.87
0.8840,0.1160	-10656.15
0.8982,0.1018	-10666.52
0.8154,0.1846	-10685.31
0.7801,0.2199	-10675.48
0.8311,0.1689	-10662.18
0.8734,0.1266	-10660.48
0.8728,0.1272	-10664.35
0.8955,0.1045	-10664.32
0.8216,0.1784	-10673.37
0.8005,0.1995	-10668.12
0.8200,0.1800	-10673.39
0.8768,0.1232	-10656.46
0.8696,0.1304	-10664.38
0.9098,0.0902	-10662.24
0.8467,0.1533	-10673.40
0.8360,0.1640	-10673.33
0.8090,0.1910	-10670.63
0.8792,0.1208	-10656.35
0.8659,0.1341	-10666.30
0.8930,0.1070	-10662.17
0.8601,0.1399	-10659.09
0.8090,0.1910	-10674.96
0.8216,0.1784	-10673.37
0.8634,0.1366	-10666.32
0.8571,0.1429	-10666.39
0.8861,0.1139	-10672.48
0.8642,0.1358	-10668.17
0.7948,0.2052	-10683.28
0.8395,0.1605	-10675.00
0.8330,0.1670	-10671.72
0.8660,0.1340	-10656.97
0.9006,0.0994	-10670.99
0.8353,0.1647	-10676.58
0.8215,0.1785	-10676.43
0.8015,0.1985	-10669.46
0.8270,0.1730	-10665.52
0.8918,0.1082	-10668.51
0.8972,0.1028	-10655.67
0.8452,0.1548	-10666.60
0.8225,0.1775	-10668.77
0.7793,0.2207	-10679.29
0.8431,0.1569	-10668.33
0.8898,0.1102	-10660.10
0.9072,0.0928	-10664.49
0.8205,0.1795	-10677.94
0.8027,0.1973	-10670.82
0.8160,0.1840	-10674.91
0.8561,0.1439	-10664.62
0.8766,0.1234	-10664.31
0.8880,0.1120	-10662.21
0.8349,0.1651	-10661.99
0.8472,0.1528	-10666.56
0.8410,0.1590	-10671.69
0.8789,0.1211	-10664.30
0.8729,0.1271	-10668.20
0.8752,0.1248	-10660.43
0.8108,0.1892	-10673.49
0.8771,0.1229	-10652.52
0.8221,0.1779	-10679.49
0.8969,0.1031	-10660.00
0.8671,0.1329	-10668.17
0.8735,0.1265	-10668.20
0.8321,0.1679	-10676.53
0.8757,0.1243	-10664.32
0.8529,0.1471	-10664.70
0.8633,0.1367	-10655.27
0.8413,0.1587	-10678.36
0.8790,0.1210	-10660.33
0.8251,0.1749	-10673.35
0.8827,0.1173	-10664.28
0.8392,0.1608	-10673.35
0.8500,0.1500	-10668.24
0.7944,0.2056	-10679.22
0.8656,0.1344	-10662.58
0.8337,0.1663	-10674.94
0.9017,0.0983	-10662.17
0.8715,0.1285	-10666.27
0.8332,0.1668	-10681.37
0.8085,0.1915	-10663.44
0.8907,0.1093	-10662.19
0.8412,0.1588	-10671.69
0.9112,0.0888	-10659.93
0.8576,0.1424	-10671.77
0.8313,0.1687	-10665.36
0.8155,0.1845	-10668.97
0.9015,0.0985	-10668.81
0.8510,0.1490	-10659.52
0.8988,0.1012	-10657.80
0.8470,0.1530	-10663.14
0.8301,0.1699	-10673.33
0.8205,0.1795	-10665.78
0.9235,0.0765	-10657.56
0.8108,0.1892	-10666.22
0.9143,0.0857	-10655.21
0.8679,0.1321	-10660.64
0.8830,0.1170	-10664.28
0.7991,0.2009	-10670.94
0.9128,0.0872	-10659.94
0.8181,0.1819	-10674.91
0.9410,0.0590	-10652.28
0.8441,0.1559	-10666.62
0.8700,0.1300	-10662.48
0.7650,0.2350	-10677.13
0.9118,0.0882	-10655.26
0.8210,0.1790	-10671.85
0.9383,0.0617	-10652.30
0.8547,0.1453	-10671.74
0.8567,0.1433	-10666.40
0.7266,0.2734	-10684.52
0.9126,0.0874	-10664.63
0.8019,0.1981	-10673.64
0.9329,0.0671	-10662.90
0.8885,0.1115	-10664.28
0.8855,0.1145	-10660.18
0.7267,0.2733	-10682.57
0.9209,0.0791	-10662.46
0.8018,0.1982	-10673.65
0.9298,0.0702	-10662.76
0.8923,0.1077	-10660.06
0.8872,0.1128	-10670.46
0.7436,0.2564	-10682.14
0.8965,0.1035	-10653.53
0.7870,0.2130	-10671.39
0.9309,0.0691	-10657.61
0.8650,0.1350	-10670.02
0.8931,0.1069	-10660.05
0.7447,0.2553	-10687.47
0.8744,0.1256	-10660.45
0.7970,0.2030	-10673.75
0.9324,0.0676	-10657.63
0.8726,0.1274	-10664.35
0.8972,0.1028	-10657.83
0.7542,0.2458	-10678.60
0.8840,0.1160	-10664.28
0.7898,0.2102	-10673.93
0.9417,0.0583	-10655.05
0.8397,0.1603	-10666.72
0.9086,0.0914	-10653.04
0.7459,0.2541	-10679.94
0.8489,0.1511	-10671.70
0.7595,0.2405	-10683.05
0.9462,0.0538	-10652.26
0.8523,0.1477	-10664.71
0.8910,0.1090	-10662.18
0.7810,0.2190	-10680.55
0.8369,0.1631	-10678.24
0.7612,0.2388	-10673.77
0.9493,0.0507	-10646.41
0.8719,0.1281	-10672.03
0.8757,0.1243	-10666.27
0.7479,0.2521	-10679.88
0.8661,0.1339	-10666.30
0.7215,0.2785	-10681.78
0.9517,0.0483	-10649.30
0.8702,0.1298	-10668.18
0.9042,0.0958	-10657.70
0.7649,0.2351	-10677.13
0.8339,0.1661	-10670.10
0.7093,0.2907	-10682.28
0.9418,0.0582	-10652.27
0.8877,0.1123	-10664.28
0.9126,0.0874	-10650.56
0.7971,0.2029	-10665.54
0.8436,0.1564	-10668.32
0.7731,0.2269	-10667.10
0.9402,0.0598	-10660.55
0.8746,0.1254	-10675.98
0.8931,0.1069	-10670.66
0.7947,0.2053	-10672.45
0.8358,0.1642	-10666.83
0.7606,0.2394	-10678.42
0.9394,0.0606	-10665.99
0.8614,0.1386	-10662.69
0.8711,0.1289	-10662.46
0.8134,0.1866	-10676.40
0.8608,0.1392	-10671.81
0.7640,0.2360	-10672.46
0.9434,0.0566	-10660.70
0.8728,0.1272	-10668.20
0.8582,0.1418	-10675.38
0.8208,0.1792	-10667.29
0.8690,0.1310	-10660.61
0.7892,0.2108	-10675.27
0.9382,0.0618	-10652.30
0.8824,0.1176	-10668.31
0.8322,0.1678	-10666.92
0.8210,0.1790	-10667.29
0.8683,0.1317	-10664.40
0.7621,0.2379	-10679.54
0.9298,0.0702	-10657.60
0.8877,0.1123	-10662.21
0.8271,0.1729	-10670.21
0.8224,0.1776	-10674.90
0.8735,0.1265	-10658.54
0.7751,0.2249	-10674.39
0.9148,0.0852	-10652.83
0.9218,0.0782	-10660.02
0.8621,0.1379	-10666.33
0.8334,0.1666	-10678.16
0.8574,0.1426	-10664.59
0.7363,0.2637	-10680.25
0.9054,0.0946	-10657.68
0.9088,0.0912	-10662.23
0.8658,0.1342	-10664.44
0.8480,0.1520	-10666.54
0.8577,0.1423	-10669.98
0.7632,0.2368	-10678.35
0.8893,0.1107	-10666.36
0.9305,0.0695	-10657.61
0.8580,0.1420	-10677.17
0.8338,0.1662	-10670.10
0.8493,0.1507	-10671.70
0.8121,0.1879	-10676.40
0.8844,0.1156	-10658.17
0.9241,0.0759	-10657.56
0.8448,0.1552	-10673.38
0.7867,0.2133	-10675.32
0.8270,0.1730	-10667.08
0.8099,0.1901	-10677.85
0.8978,0.1022	-10655.65
0.9135,0.0865	-10659.94
0.8432,0.1568	-10666.64
0.7729,0.2271	-10675.69
0.7939,0.2061	-10676.52
0.7845,0.2155	-10668.91
0.8941,0.1059	-10660.04
0.9090,0.0910	-10655.33
0.8204,0.1796	-10671.86
0.7477,0.2523	-10682.06
0.8093,0.1907	-10680.74
0.7805,0.2195	-10675.47
0.9044,0.0956	-10655.45
0.9022,0.0978	-10659.95
0.8757,0.1243	-10660.41
0.7381,0.2619	-10684.33
0.8189,0.1811	-10668.87
0.7922,0.2078	-10672.53
0.9040,0.0960	-10666.67
0.8941,0.1059	-10655.77
0.8637,0.1363	-10666.32
0.7207,0.2793	-10678.96
0.8348,0.1652	-10670.09
0.7674,0.2326	-10677.06
0.9064,0.0936	-10666.74
0.8927,0.1073	-10668.53
0.9058,0.0942	-10662.20
0.7341,0.2659	-10684.39
0.8668,0.1332	-10658.80
0.7818,0.2182	-10674.16
0.8761,0.1239	-10666.27
0.9021,0.0979	-10664.40
0.9138,0.0862	-10662.30
0.7453,0.2547	-10677.81
0.8765,0.1235	-10660.39
0.7929,0.2071	-10668.48
0.8803,0.1197	-10676.26
0.9011,0.0989	-10657.75
0.9131,0.0869	-10659.94
0.7394,0.2606	-10674.93
0.8547,0.1453	-10669.97
0.7747,0.2253	-10671.93
0.8649,0.1351	-10677.45
0.9084,0.0916	-10655.34
0.9120,0.0880	-10669.29
0.7160,0.2840	-10681.99
0.8234,0.1766	-10671.82
0.7613,0.2387	-10674.92
0.8658,0.1342	-10668.17
0.9087,0.0913	-10657.63
0.9045,0.0955	-10657.69
0.7231,0.2769	-10679.80
0.7665,0.2335	-10681.84
0.7783,0.2217	-10678.04
0.8606,0.1394	-10669.99
0.9159,0.0841	-10664.73
0.9178,0.0822	-10662.38
0.7346,0.2654	-10675.22
0.8009,0.1991	-10677.84
0.7797,0.2203	-10675.49
0.8483,0.1517	-10664.81
0.9159,0.0841	-10652.79
0.9115,0.0885	-10657.60
0.7435,0.2565	-10683.21
0.8066,0.1934	-10673.56
0.7792,0.2208	-10675.51
0.8367,0.1633	-10673.34
0.9164,0.0836	-10664.75
0.9097,0.0903	-10650.69
0.7590,0.2410	-10678.46
0.8037,0.1963	-10677.84
0.7914,0.2086	-10676.55
0.8365,0.1635	-10676.60
0.9052,0.0948	-10671.22
0.9297,0.0703	-10652.43
0.7879,0.2121	-10681.86
0.8000,0.2000	-10675.07
0.7962,0.2038	-10675.13
0.8273,0.1727	-10671.77
0.9060,0.0940	-10666.73
0.9255,0.0745	-10657.56
0.8105,0.1895	-10669.14
0.8098,0.1902	-10674.96
0.8301,0.1699	-10670.16
0.8500,0.1500	-10668.24
0.9059,0.0941	-10657.67
0.9365,0.0635	-10646.94
0.8412,0.1588	-10673.36
0.8210,0.1790	-10682.52
0.8079,0.1921	-10672.10
0.8359,0.1641	-10668.45
0.9011,0.0989	-10657.75
0.9291,0.0709	-10657.59
0.8327,0.1673	-10674.94
0.8106,0.1894	-10673.50
0.7915,0.2085	-10675.22
0.8366,0.1634	-10674.97
0.8936,0.1064	-10666.43
0.9369,0.0631	-10663.11
0.8760,0.1240	-10664.32
0.7724,0.2276	-10676.93
0.8233,0.1767	-10676.44
0.8437,0.1563	-10664.94
0.8796,0.1204	-10666.28
0.9386,0.0614	-10657.75
0.8698,0.1302	-10658.68
0.8083,0.1917	-10670.65
0.8449,0.1551	-10671.69
0.8528,0.1472	-10671.73
0.8572,0.1428	-10673.56
0.9516,0.0484	-10661.22
0.8587,0.1413	-10668.18
0.8001,0.1999	-10663.98
0.8360,0.1640	-10671.71
0.8397,0.1603	-10658.44
0.8375,0.1625	-10668.42
0.9478,0.0522	-10649.36
0.8618,0.1382	-10668.17
0.8300,0.1700	-10676.50
0.8411,0.1589	-10671.69
0.8300,0.1700	-10670.16
0.8191,0.1809	-10676.41
0.9572,0.0428	-10649.26
0.8813,0.1187	-10660.27
0.8338,0.1662	-10670.10
0.8512,0.1488	-10668.23
0.8342,0.1658	-10671.72
0.8231,0.1769	-10667.21
0.9509,0.0491	-10652.27
0.8896,0.1104	-10670.54
0.8596,0.1404	-10666.36
0.8665,0.1335	-10670.04
0.8498,0.1502	-10669.97
0.8309,0.1691	-10671.74
0.9585,0.0415	-10646.12
0.8983,0.1017	-10651.28
0.8631,0.1369	-10668.17
0.8779,0.1221	-10672.19
0.8333,0.1667	-10671.72
0.8322,0.1678	-10668.53
0.9468,0.0532	-10649.38
0.8913,0.1087	-10655.87
0.8624,0.1376	-10668.17
0.8945,0.1055	-10664.31
0.8526,0.1474	-10666.46
0.8541,0.1459	-10664.67
0.9466,0.0534	-10655.13
0.8999,0.1001	-10659.97
0.8742,0.1258	-10668.21
0.9028,0.0972	-10664.41
0.8525,0.1475	-10661.20
0.8637,0.1363	-10666.32
0.9439,0.0561	-10652.26
0.8886,0.1114	-10658.05
0.8717,0.1283	-10664.36
0.9040,0.0960	-10659.94
0.8648,0.1352	-10664.45
0.8264,0.1736	-10667.10
0.9480,0.0520	-10646.45
0.8861,0.1139	-10654.01
0.8806,0.1194	-10666.28
0.8988,0.1012	-10668.72
0.8543,0.1457	-10662.89
0.7958,0.2042	-10684.66
0.9515,0.0485	-10658.23
0.8894,0.1106	-10664.28
0.8694,0.1306	-10662.49
0.8830,0.1170	-10668.32
0.8711,0.1289	-10672.01
0.8440,0.1560	-10661.56
0.9470,0.0530	-10646.49
0.9141,0.0859	-10664.67
0.8565,0.1435	-10664.61
0.8519,0.1481	-10673.47
0.8614,0.1386	-10660.86
0.8537,0.1463	-10673.50
0.9419,0.0581	-10660.63
0.9221,0.0779	-10667.44
0.8492,0.1508	-10675.16
0.8386,0.1614	-10674.99
0.8564,0.1436	-10666.40
0.8429,0.1571	-10670.01
0.9557,0.0443	-10646.19
0.9267,0.0733	-10652.50
0.8704,0.1296	-10668.18
0.8568,0.1432	-10664.61
0.8634,0.1366	-10662.63
0.8486,0.1514	-10666.53
0.9570,0.0430	-10649.26
0.9356,0.0644	-10665.71
0.8673,0.1327	-10660.66
0.8655,0.1345	-10658.86
0.8608,0.1392	-10664.53
0.8761,0.1239	-10676.05
0.9573,0.0427	-10646.15
0.9137,0.0863	-10652.86
0.8824,0.1176	-10658.23
0.8802,0.1198	-10658.30
0.8693,0.1307	-10681.44
0.8730,0.1270	-10660.49
0.9507,0.0493	-10649.31
0.9185,0.0815	-10652.71
0.8879,0.1121	-10664.28
0.8973,0.1027	-10668.67
0.8421,0.1579	-10670.01
0.8748,0.1252	-10658.49
0.9590,0.0410	-10652.41
0.9136,0.0864	-10655.22
0.8645,0.1355	-10668.17
0.8913,0.1087	-10662.18
0.8284,0.1716	-10668.61
0.8609,0.1391	-10675.46
0.9494,0.0506	-10646.40
0.9093,0.0907	-10662.24
0.8512,0.1488	-10668.23
0.8860,0.1140	-10658.12
0.8390,0.1610	-10666.74
0.8688,0.1312	-10658.72
0.9351,0.0649	-10663.01
0.9178,0.0822	-10669.62
0.8548,0.1452	-10666.42
0.9184,0.0816	-10655.14
0.8395,0.1605	-10663.42
0.8607,0.1393	-10666.35
0.9400,0.0600	-10666.04
0.9055,0.0945	-10671.23
0.8082,0.1918	-10682.16
0.9286,0.0714	-10660.15
0.8208,0.1792	-10668.81
0.8268,0.1732	-10679.60
0.9481,0.0519	-10660.97
0.9048,0.0952	-10662.19
0.8219,0.1781	-10674.90
0.9226,0.0774	-10652.60
0.7961,0.2039	-10673.77
0.8252,0.1748	-10664.04
0.9609,0.0391	-10655.66
0.8912,0.1088	-10653.77
0.8310,0.1690	-10671.74
0.9148,0.0852	-10650.45
0.8127,0.1873	-10670.53
0.7982,0.2018	-10673.72
0.9637,0.0363	-10646.00
0.8991,0.1009	-10664.35
0.8190,0.1810	-10673.39
0.9162,0.0838	-10664.74
0.8160,0.1840	-10668.96
0.8263,0.1737	-10667.11
0.9598,0.0402	-10649.25
0.9124,0.0876	-10669.31
0.8474,0.1526	-10663.13
0.9297,0.0703	-10652.43
0.8430,0.1570	-10666.65
0.8752,0.1248	-10658.48
0.9562,0.0438	-10649.26
0.8934,0.1066	-10655.79
0.8601,0.1399	-10666.36
0.9074,0.0926	-10657.65
0.8309,0.1691	-10670.15
0.8709,0.1291	-10677.73
0.9577,0.0423	-10655.49
0.9036,0.0964	-10668.90
0.8580,0.1420	-10666.38
0.8877,0.1123	-10656.01
0.8438,0.1562	-10666.63
0.8962,0.1038	-10668.63
0.9658,0.0342	-10649.30
0.8973,0.1027	-10668.67
0.8490,0.1510	-10657.89
0.9004,0.0996	-10657.77
0.8576,0.1424	-10668.18
0.9013,0.0987	-10657.75
0.9608,0.0392	-10652.46
0.9060,0.0940	-10657.67
0.8378,0.1622	-10676.62
0.9063,0.0937	-10662.20
0.8642,0.1358	-10658.91
0.8875,0.1125	-10664.28
0.9593,0.0407	-10649.25
0.8888,0.1112	-10655.96
0.8225,0.1775	-10662.63
0.8983,0.1017	-10655.63
0.8244,0.1756	-10671.81
0.8750,0.1250	-10658.49
0.9422,0.0578	-10660.64
0.8880,0.1120	-10670.49
0.8226,0.1774	-10671.83
0.9238,0.0762	-10662.55
0.8294,0.1706	-10671.75
0.9050,0.0950	-10662.19
0.9401,0.0599	-10652.28
0.9054,0.0946	-10664.46
0.8455,0.1545	-10666.59
0.9269,0.0731	-10662.65
0.8190,0.1810	-10668.87
0.9167,0.0833	-10659.96
0.9554,0.0446	-10661.52
0.9094,0.0906	-10666.85
0.8310,0.1690	-10662.18
0.9206,0.0794	-10652.65
0.7960,0.2040	-10671.05
0.9185,0.0815	-10659.98
0.9474,0.0526	-10655.15
0.9200,0.0800	-10657.55
0.8059,0.1941	-10674.99
0.9233,0.0767	-10660.04
0.8513,0.1487	-10673.46
0.9153,0.0847	-10648.05
0.9517,0.0483	-10652.28
0.8988,0.1012	-10653.43
0.7906,0.2094	-10676.57
0.9076,0.0924	-10655.36
0.8524,0.1476	-10675.23
0.9148,0.0852	-10662.32
0.9434,0.0566	-10649.45
0.8906,0.1094	-10657.99
0.8103,0.1897	-10667.69
0.9057,0.0943	-10664.46
0.8145,0.1855	-10674.92
0.9255,0.0745	-10655.04
0.9472,0.0528	-10643.60
0.8695,0.1305	-10662.49
0.8022,0.1978	-10675.04
0.9023,0.0977	-10662.18
0.8087,0.1913	-10677.85
0.9074,0.0926	-10657.65
0.9440,0.0560	-10660.73
0.8608,0.1392	-10668.17
0.8294,0.1706	-10665.43
0.8945,0.1055	-10660.03
0.8109,0.1891	-10666.21
0.9030,0.0970	-10657.72
0.9470,0.0530	-10646.49
0.8902,0.1098	-10672.65
0.8454,0.1546	-10675.09
0.8895,0.1105	-10664.28
0.8044,0.1956	-10670.77
0.9067,0.0933	-10669.03
0.9553,0.0447	-10649.27
0.8831,0.1169	-10674.39
0.8651,0.1349	-10660.73
0.8955,0.1045	-10655.72
0.7850,0.2150	-10676.66
0.9191,0.0809	-10657.55
0.9615,0.0385	-10655.70
0.9079,0.0921	-10669.09
0.8779,0.1221	-10662.33
0.9121,0.0879	-10664.62
0.8287,0.1713	-10673.34
0.9226,0.0774	-10655.08
0.9553,0.0447	-10652.33
0.8992,0.1008	-10657.79
0.8393,0.1607	-10675.00
0.9050,0.0950	-10657.69
0.8442,0.1558	-10663.24
0.9053,0.0947	-10662.20
0.9489,0.0511	-10646.42
0.8940,0.1060	-10662.17
0.8459,0.1541	-10673.40
0.9066,0.0934	-10657.66
0.8302,0.1698	-10681.27
0.8937,0.1063	-10657.91
0.9647,0.0353	-10645.98
0.8906,0.1094	-10664.28
0.8446,0.1554	-10664.92
0.9041,0.0959	-10666.67
0.8331,0.1669	-10663.68
0.8381,0.1619	-10670.05
0.9665,0.0335	-10649.31
0.8831,0.1169	-10660.23
0.8524,0.1476	-10662.96
0.9026,0.0974	-10655.50
0.7919,0.2081	-10676.55
0.8584,0.1416	-10668.18
0.9640,0.0360	-10652.57
0.8656,0.1344	-10677.48
0.8589,0.1411	-10668.18
0.8577,0.1423	-10680.75
0.7973,0.2027	-10668.27
0.8729,0.1271	-10664.35
0.9678,0.0322	-10652.74
0.8553,0.1447	-10662.86
0.8540,0.1460	-10675.27
0.8251,0.1749	-10671.80
0.8005,0.1995	-10676.45
0.8836,0.1164	-10662.25
0.9671,0.0329	-10649.33
0.8707,0.1293	-10664.37
0.8704,0.1296	-10677.70
0.8057,0.1943	-10673.57
0.7766,0.2234	-10678.07
0.8777,0.1223	-10666.27
0.9720,0.0280	-10653.00
0.8216,0.1784	-10671.85
0.8582,0.1418	-10657.38
0.8312,0.1688	-10668.55
0.7776,0.2224	-10671.80
0.8702,0.1298	-10666.28
0.9700,0.0300	-10652.87
0.8456,0.1544	-10664.89
0.8528,0.1472	-10659.43
0.8115,0.1885	-10669.10
0.7671,0.2329	-10675.88
0.8692,0.1308	-10666.28
0.9760,0.0240	-10664.45
0.8199,0.1801	-10665.81
0.8524,0.1476	-10673.48
0.8453,0.1547	-10661.50
0.8210,0.1790	-10668.81
0.8938,0.1062	-10660.04
0.9731,0.0269	-10653.09
0.8255,0.1745	-10668.69
0.8399,0.1601	-10666.72
0.8480,0.1520	-10657.95
0.8124,0.1876	-10666.14
0.9100,0.0900	-10666.87
0.9708,0.0292	-10656.42
0.8500,0.1500	-10666.50
0.8707,0.1293	-10662.46
0.8361,0.1639	-10665.19
0.8092,0.1908	-10664.85
0.9097,0.0903	-10662.24
0.9701,0.0299	-10652.87
0.8772,0.1228	-10660.37
0.8773,0.1227	-10656.44
0.8152,0.1848	-10666.01
0.8194,0.1806	-10676.42
0.9112,0.0888	-10659.93
0.9513,0.0487	-10655.25
0.8650,0.1350	-10670.02
0.8954,0.1046	-10660.02
0.7797,0.2203	-10679.29
0.8595,0.1405	-10668.17
0.9025,0.0975	-10662.18
0.9508,0.0492	-10652.27
0.8693,0.1307	-10671.97
0.8882,0.1118	-10662.20
0.7662,0.2338	-10668.79
0.8292,0.1708	-10671.75
0.9288,0.0712	-10655.02
0.9506,0.0494	-10649.32
0.8060,0.1940	-10672.15
0.8709,0.1291	-10672.00
0.7565,0.2435	-10679.66
0.8438,0.1562	-10670.00
0.9205,0.0795	-10662.45
0.9618,0.0382	-10655.71
0.8396,0.1604	-10676.66
0.8770,0.1230	-10668.24
0.7660,0.2340	-10672.35
0.8500,0.1500	-10668.24
0.9266,0.0734	-10660.11
0.9676,0.0324	-10642.54
0.8167,0.1833	-10668.93
0.8630,0.1370	-10670.01
0.7610,0.2390	-10671.46
0.8332,0.1668	-10670.11
0.9338,0.0662	-10649.71
0.9531,0.0469	-10643.26
0.8396,0.1604	-10671.69
0.8858,0.1142	-10664.27
0.7297,0.2703	-10683.47
0.8062,0.1938	-10673.57
0.9402,0.0598	-10652.28
0.9470,0.0530	-10646.49
0.8787,0.1213	-10662.32
0.8727,0.1273	-10664.35
0.7787,0.2213	-10681.81
0.8125,0.1875	-10664.67
0.9446,0.0554	-10652.26
0.9456,0.0544	-10649.40
0.8425,0.1575	-10668.33
0.8615,0.1385	-10666.34
0.7492,0.2508	-10680.94
0.7838,0.2162	-10674.10
0.9457,0.0543	-10657.97
0.9526,0.0474	-10652.29
0.8272,0.1728	-10676.47
0.8582,0.1418	-10675.38
0.7530,0.2470	-10676.41
0.7633,0.2367	-10679.52
0.9572,0.0428	-10649.26
0.9493,0.0507	-10652.26
0.8649,0.1351	-10668.17
0.8789,0.1211	-10662.31
0.7752,0.2248	-10676.86
0.8025,0.1975	-10675.04
0.9580,0.0420	-10658.64
0.9562,0.0438	-10652.34
0.8424,0.1576	-10664.98
0.8747,0.1253	-10664.33
0.7923,0.2077	-10676.54
0.7995,0.2005	-10677.84
0.9577,0.0423	-10649.26
0.9596,0.0404	-10649.25
0.8277,0.1723	-10673.34
0.8821,0.1179	-10662.27
0.7693,0.2307	-10679.42
0.8151,0.1849	-10674.92
0.9501,0.0499	-10646.37
0.9619,0.0381	-10649.26
0.8086,0.1914	-10672.09
0.8769,0.1231	-10658.42
0.7948,0.2052	-10673.80
0.8202,0.1798	-10668.83
0.9457,0.0543	-10643.69
0.9631,0.0369	-10646.01
0.8029,0.1971	-10672.22
0.8774,0.1226	-10666.27
0.8407,0.1593	-10670.03
0.8268,0.1732	-10667.09
0.9488,0.0512	-10649.34
0.9637,0.0363	-10649.28
0.8376,0.1624	-10671.70
0.8789,0.1211	-10658.35
0.8662,0.1338	-10666.30
0.8404,0.1596	-10666.71
0.9406,0.0594	-10646.75
0.9671,0.0329	-10656.09
0.8491,0.1509	-10673.43
0.8769,0.1231	-10668.24
0.8569,0.1431	-10669.97
0.8402,0.1598	-10670.03
0.9388,0.0612	-10655.02
0.9694,0.0306	-10659.74
0.8471,0.1529	-10673.41
0.8876,0.1124	-10666.34
0.8662,0.1338	-10666.30
0.8420,0.1580	-10656.63
0.9416,0.0584	-10660.61
0.9744,0.0256	-10645.92
0.8623,0.1377	-10660.83
0.8541,0.1459	-10668.20
0.8946,0.1054	-10655.75
0.8284,0.1716	-10671.76
0.9424,0.0576	-10657.86
0.9725,0.0275	-10645.91
0.8594,0.1406	-10669.98
0.8408,0.1592	-10675.02
0.8745,0.1255	-10654.62
0.8357,0.1643	-10665.20
0.9508,0.0492	-10655.24
0.9734,0.0266	-10642.31
0.8567,0.1433	-10659.24
0.7990,0.2010	-10673.71
0.8755,0.1245	-10664.32
0.8539,0.1461	-10669.97
0.9433,0.0567	-10657.89
0.9729,0.0271	-10645.91
0.8741,0.1259	-10662.40
0.7979,0.2021	-10676.48
0.8907,0.1093	-10657.99
0.8585,0.1415	-10666.37
0.9443,0.0557	-10646.60
0.9729,0.0271	-10649.49
0.8878,0.1122	-10662.21
0.7595,0.2405	-10673.85
0.8999,0.1001	-10659.97
0.8882,0.1118	-10660.13
0.9310,0.0690	-10649.81
0.9666,0.0334	-10656.05
0.8875,0.1125	-10666.34
0.7960,0.2040	-10666.96
0.9094,0.0906	-10664.54
0.8828,0.1172	-10666.30
0.9247,0.0753	-10660.07
0.9582,0.0418	-10652.39
0.8922,0.1078	-10662.18
0.8044,0.1956	-10684.91
0.9234,0.0766	-10650.09
0.8664,0.1336	-10666.30
0.9131,0.0869	-10657.59
0.9575,0.0425	-10658.60
0.9009,0.0991	-10655.55
0.8130,0.1870	-10674.93
0.9093,0.0907	-10664.54
0.8892,0.1108	-10676.78
0.9113,0.0887	-10657.60
0.9629,0.0371	-10662.29
0.8890,0.1110	-10660.12
0.7846,0.2154	-10681.83
0.9016,0.0984	-10657.74
0.9051,0.0949	-10659.94
0.9251,0.0749	-10667.61
0.9631,0.0369	-10652.53
0.9040,0.0960	-10653.22
0.7052,0.2948	-10683.34
0.9111,0.0889	-10655.28
0.9146,0.0854	-10659.95
0.9172,0.0828	-10645.53
0.9559,0.0441	-10649.26
0.8861,0.1139	-10674.53
0.6868,0.3132	-10688.14
0.9262,0.0738	-10655.04
0.9125,0.0875	-10659.94
0.9271,0.0729	-10652.49
0.9638,0.0362	-10649.28
0.8772,0.1228	-10662.34
0.6987,0.3013	-10684.47
0.9073,0.0927	-10657.65
0.9101,0.0899	-10659.93
0.9362,0.0638	-10655.01
0.9549,0.0451	-10649.27
0.8973,0.1027	-10664.33
0.6683,0.3317	-10689.49
0.8981,0.1019	-10657.81
0.9159,0.0841	-10659.96
0.9497,0.0503	-10646.39
0.9520,0.0480	-10667.23
0.8971,0.1029	-10662.17
0.6390,0.3610	-10690.25
0.8831,0.1169	-10664.28
0.9023,0.0977	-10653.29
0.9554,0.0446	-10652.33
0.9418,0.0582	-10663.40
0.8972,0.1028	-10657.83
0.6249,0.3751	-10692.67
0.8639,0.1361	-10670.01
0.9089,0.0911	-10655.33
0.9609,0.0391	-10655.66
0.9421,0.0579	-10652.27
0.8998,0.1002	-10657.78
0.6165,0.3835	-10690.79
0.8773,0.1227	-10658.40
0.8871,0.1129	-10670.46
0.9661,0.0339	-10652.66
0.9442,0.0558	-10657.92
0.9016,0.0984	-10659.96
0.6562,0.3438	-10689.97
0.8610,0.1390	-10666.35
0.8897,0.1103	-10668.46
0.9644,0.0356	-10649.28
0.9400,0.0600	-10652.28
0.8989,0.1011	-10655.61
0.6492,0.3508	-10690.29
0.8559,0.1441	-10668.19
0.8789,0.1211	-10652.40
0.9589,0.0411	-10649.25
0.9397,0.0603	-10660.52
0.9033,0.0967	-10664.42
0.6330,0.3670	-10690.07
0.8429,0.1571	-10663.29
0.8785,0.1215	-10666.28
0.9651,0.0349	-10645.97
0.9461,0.0539	-10657.99
0.8880,0.1120	-10666.35
0.6888,0.3112	-10685.70
0.8246,0.1754	-10674.90
0.8687,0.1313	-10668.17
0.9667,0.0333	-10649.32
0.9401,0.0599	-10649.53
0.8767,0.1233	-10666.27
0.6432,0.3568	-10690.01
0.8531,0.1469	-10664.69
0.8838,0.1162	-10658.19
0.9554,0.0446	-10652.33
0.9373,0.0627	-10652.31
0.8668,0.1332	-10660.68
0.6925,0.3075	-10683.92
0.8597,0.1403	-10669.99
0.8810,0.1190	-10664.28
0.9560,0.0440	-10643.11
0.9329,0.0671	-10655.01
0.9051,0.0949	-10650.92
0.7315,0.2685	-10675.41
0.8456,0.1544	-10664.89
0.8823,0.1177	-10670.32
0.9560,0.0440	-10646.18
0.9399,0.0601	-10646.78
0.8881,0.1119	-10662.20
0.7920,0.2080	-10681.89
0.8699,0.1301	-10656.78
0.8884,0.1116	-10670.50
0.9468,0.0532	-10649.38
0.9323,0.0677	-10662.87
0.8746,0.1254	-10654.61
0.7709,0.2291	-10675.75
0.8702,0.1298	-10671.99
0.8963,0.1037	-10666.48
0.9211,0.0789	-10669.84
0.9357,0.0643	-10655.01
0.8637,0.1363	-10662.63
0.8041,0.1959	-10675.02
0.8569,0.1431	-10662.82
0.9016,0.0984	-10664.39
0.9190,0.0810	-10655.13
0.9359,0.0641	-10663.06
0.8885,0.1115	-10662.20
0.8270,0.1730	-10662.39
0.8625,0.1375	-10662.66
0.9159,0.0841	-10655.18
0.9374,0.0626	-10652.31
0.9337,0.0663	-10660.29
0.9123,0.0877	-10662.28
0.8529,0.1471	-10662.94
0.8611,0.1389	-10669.99
0.9224,0.0776	-10655.08
0.9192,0.0808	-10659.99
0.9319,0.0681	-10655.01
0.9149,0.0851	-10667.08
0.8803,0.1197	-10658.30
0.8542,0.1458	-10666.43
0.9178,0.0822	-10650.32
0.8982,0.1018	-10659.99
0.9334,0.0666	-10657.65
0.9061,0.0939	-10653.13
0.8951,0.1049	-10666.46
0.8625,0.1375	-10671.84
0.9108,0.0892	-10659.93
0.9009,0.0991	-10662.17
0.9457,0.0543	-10655.11
0.8914,0.1086	-10655.87
0.8991,0.1009	-10659.98
0.8961,0.1039	-10660.01
0.9159,0.0841	-10669.51
0.9084,0.0916	-10664.52
0.9388,0.0612	-10660.49
0.8722,0.1278	-10672.04
0.8974,0.1026	-10660.00
0.8810,0.1190	-10662.28
0.9051,0.0949	-10659.94
0.9133,0.0867	-10662.30
0.9395,0.0605	-10660.52
0.8713,0.1287	-10672.01
0.9004,0.0996	-10655.57
0.8752,0.1248	-10656.53
0.8932,0.1068	-10664.30
0.9035,0.0965	-10659.95
0.9338,0.0662	-10652.36
0.8781,0.1219	-10656.40
0.8902,0.1098	-10662.19
0.8793,0.1207	-10660.32
0.9017,0.0983	-10655.53
0.8933,0.1067	-10666.42
0.9278,0.0722	-10665.24
0.8766,0.1234	-10668.23
0.8979,0.1021	-10659.99
0.9004,0.0996	-10666.57
0.8908,0.1092	-10657.99
0.9214,0.0786	-10664.94
0.9131,0.0869	-10659.94
0.8542,0.1458	-10662.90
0.8951,0.1049	-10657.88
0.8789,0.1211	-10668.26
0.8783,0.1217	-10664.30
0.9114,0.0886	-10650.61
0.9183,0.0817	-10650.30
0.8465,0.1535	-10669.99
0.8964,0.1036	-10653.53
0.8627,0.1373	-10660.82
0.8610,0.1390	-10662.70
0.9086,0.0914	-10657.63
0.9160,0.0840	-10657.57
0.8508,0.1492	-10678.67
0.8718,0.1282	-10654.77
0.8660,0.1340	-10664.44
0.8641,0.1359	-10658.92
0.8876,0.1124	-10662.21
0.9144,0.0856	-10662.31
0.8527,0.1473	-10675.24
0.8941,0.1059	-10662.17
0.8667,0.1333	-10666.30
0.8617,0.1383	-10670.00
0.8851,0.1149	-10672.44
0.9139,0.0861	-10659.94
0.8742,0.1258	-10668.21
0.9060,0.0940	-10657.67
0.8864,0.1136	-10658.11
0.8767,0.1233	-10664.31
0.8871,0.1129	-10676.64
0.9182,0.0818	-10652.72
0.8600,0.1400	-10668.17
0.9074,0.0926	-10655.37
0.8857,0.1143	-10656.09
0.8870,0.1130	-10664.27
0.9051,0.0949	-10671.21
0.9329,0.0671	-10649.74
0.8458,0.1542	-10676.80
0.9289,0.0711	-10657.59
0.8813,0.1187	-10666.29
0.8901,0.1099	-10672.65
0.9050,0.0950	-10666.70
0.9083,0.0917	-10650.76
0.8511,0.1489	-10666.49
0.9304,0.0696	-10655.01
0.8791,0.1209	-10672.23
0.8873,0.1127	-10660.15
0.9047,0.0953	-10664.44
0.9103,0.0897	-10669.20
0.8688,0.1312	-10671.96
0.9339,0.0661	-10655.01
0.8934,0.1066	-10664.30
0.8946,0.1054	-10660.03
0.9103,0.0897	-10650.66
0.8937,0.1063	-10668.56
0.9014,0.0986	-10655.53
0.9407,0.0593	-10652.28
0.8869,0.1131	-10660.16
0.8989,0.1011	-10664.35
0.9136,0.0864	-10657.58
0.8732,0.1268	-10664.34
0.9001,0.0999	-10662.17
0.9234,0.0766	-10655.07
0.8911,0.1089	-10655.88
0.8919,0.1081	-10674.84
0.9012,0.0988	-10662.17
0.8633,0.1367	-10664.48
0.9130,0.0870	-10648.19
0.9170,0.0830	-10657.56
0.9023,0.0977	-10659.95
0.8781,0.1219	-10656.40
0.9162,0.0838	-10655.17
0.8838,0.1162	-10674.42
0.9050,0.0950	-10664.45
0.9241,0.0759	-10652.56
0.8929,0.1071	-10664.30
0.8693,0.1307	-10660.60
0.9084,0.0916	-10678.29
0.8396,0.1604	-10663.41
0.9121,0.0879	-10657.60
0.9283,0.0717	-10647.34
0.8826,0.1174	-10664.28
0.8689,0.1311	-10666.28
0.8888,0.1112	-10666.36
0.8342,0.1658	-10670.10
0.9286,0.0714	-10665.28
0.9270,0.0730	-10657.57
0.8839,0.1161	-10650.07
0.8687,0.1313	-10679.51
0.9124,0.0876	-10669.31
0.8096,0.1904	-10676.40
0.9311,0.0689	-10655.01
0.9234,0.0766	-10660.05
0.8908,0.1092	-10657.99
0.8779,0.1221	-10656.41
0.9119,0.0881	-10664.61
0.7955,0.2045	-10673.79
0.9385,0.0615	-10657.75
0.9343,0.0657	-10655.01
0.8972,0.1028	-10657.83
0.8880,0.1120	-10668.42
0.9040,0.0960	-10655.46
0.7947,0.2053	-10675.16
0.9420,0.0580	-10643.91
0.9446,0.0554	-10652.26
0.8919,0.1081	-10662.18
0.8917,0.1083	-10664.29
0.8957,0.1043	-10651.41
0.8041,0.1959	-10672.19
0.9233,0.0767	-10660.04
0.9590,0.0410	-10652.41
0.9018,0.0982	-10648.87
0.8868,0.1132	-10653.98
0.9002,0.0998	-10659.97
0.8474,0.1526	-10673.41
0.9117,0.0883	-10664.60
0.9586,0.0414	-10652.40
0.8998,0.1002	-10653.39
0.8739,0.1261	-10660.46
0.9085,0.0915	-10657.64
0.8491,0.1509	-10675.16
0.9070,0.0930	-10657.66
0.9603,0.0397	-10652.44
0.9093,0.0907	-10657.63
0.8609,0.1391	-10673.64
0.9154,0.0846	-10655.19
0.8311,0.1689	-10673.33
0.9224,0.0776	-10657.55
0.9603,0.0397	-10646.07
0.9020,0.0980	-10662.18
0.8649,0.1351	-10679.30
0.9080,0.0920	-10659.93
0.8181,0.1819	-10665.88
0.9208,0.0792	-10662.46
0.9631,0.0369	-10649.27
0.9179,0.0821	-10655.14
0.8655,0.1345	-10657.00
0.9082,0.0918	-10657.64
0.8239,0.1761	-10665.64
0.9297,0.0703	-10667.92
0.9603,0.0397	-10649.26
0.9119,0.0881	-10657.60
0.8480,0.1520	-10666.54
0.9128,0.0872	-10666.98
0.8306,0.1694	-10666.97
0.9406,0.0594	-10657.80
0.9684,0.0316	-10656.20
0.9047,0.0953	-10671.19
0.8636,0.1364	-10666.32
0.8965,0.1035	-10662.17
0.8548,0.1452	-10673.51
0.9458,0.0542	-10655.12
0.9702,0.0298	-10652.88
0.9084,0.0916	-10659.93
0.8282,0.1718	-10670.19
0.9150,0.0850	-10662.32
0.8584,0.1416	-10669.98
0.9335,0.0665	-10655.01
0.9656,0.0344	-10652.64
0.9083,0.0917	-10664.52
0.8627,0.1373	-10658.98
0.9089,0.0911	-10662.23
0.8744,0.1256	-10668.21
0.9462,0.0538	-10655.12
0.9579,0.0421	-10649.26
0.9176,0.0824	-10657.56
0.8404,0.1596	-10671.69
0.9006,0.0994	-10655.56
0.9005,0.0995	-10662.17
0.9467,0.0533	-10646.50
0.9528,0.0472	-10661.31
0.9164,0.0836	-10662.35
0.8348,0.1652	-10674.95
0.8760,0.1240	-10674.09
0.9204,0.0796	-10664.89
0.9479,0.0521	-10666.77
0.9491,0.0509	-10661.04
0.9125,0.0875	-10662.28
0.8027,0.1973	-10676.44
0.8772,0.1228	-10662.34
0.9123,0.0877	-10664.62
0.9449,0.0551	-10649.42
0.9554,0.0446	-10655.39
0.9115,0.0885	-10657.60
0.8095,0.1905	-10669.17
0.8655,0.1345	-10668.17
0.9075,0.0925	-10657.65
0.9444,0.0556	-10649.43
0.9578,0.0422	-10649.26
0.8937,0.1063	-10664.30
0.8450,0.1550	-10661.52
0.8854,0.1146	-10660.18
0.9023,0.0977	-10655.51
0.9485,0.0515	-10661.00
0.9482,0.0518	-10649.35
0.8833,0.1167	-10662.25
0.8280,0.1720	-10670.19
0.9072,0.0928	-10657.65
0.9039,0.0961	-10653.22
0.9330,0.0670	-10660.27
0.9507,0.0493	-10652.27
0.8625,0.1375	-10666.33
0.8563,0.1437	-10669.97
0.9190,0.0810	-10647.84
0.8953,0.1047	-10660.02
0.9387,0.0613	-10652.30
0.9503,0.0497	-10649.32
0.8644,0.1356	-10670.02
0.8296,0.1704	-10679.67
0.9113,0.0887	-10657.60
0.9000,0.1000	-10662.17
0.9480,0.0520	-10660.97
0.9505,0.0495	-10649.32
0.8555,0.1445	-10671.75
0.8198,0.1802	-10664.30
0.9069,0.0931	-10657.66
0.9012,0.0988	-10668.80
0.9470,0.0530	-10652.26
0.9474,0.0526	-10649.37
0.8321,0.1679	-10670.13
0.8348,0.1652	-10674.95
0.9036,0.0964	-10671.14
0.8841,0.1159	-10668.34
0.9475,0.0525	-10649.37
0.9454,0.0546	-10649.40
0.8492,0.1508	-10669.98
0.8455,0.1545	-10668.29
0.8867,0.1133	-10670.45
0.8535,0.1465	-10661.16
0.9477,0.0523	-10666.75
0.9449,0.0551	-10660.78
0.8469,0.1531	-10663.14
0.8840,0.1160	-10668.34
0.8867,0.1133	-10674.56
0.8520,0.1480	-10664.72
0.9391,0.0609	-10655.03
0.9518,0.0482	-10658.25
0.8650,0.1350	-10662.59
0.8950,0.1050	-10662.17
0.8958,0.1042	-10666.47
0.8314,0.1686	-10674.93
0.9362,0.0638	-10660.38
0.9474,0.0526	-10655.15
0.8765,0.1235	-10662.35
0.9082,0.0918	-10662.22
0.9048,0.0952	-10657.69
0.8377,0.1623	-10671.70
0.9241,0.0759	-10657.56
0.9556,0.0444	-10655.40
0.8801,0.1199	-10668.28
0.9020,0.0980	-10671.05
0.9121,0.0879	-10666.96
0.8385,0.1615	-10661.81
0.9374,0.0626	-10649.60
0.9432,0.0568	-10652.26
0.8896,0.1104	-10662.19
0.9089,0.0911	-10655.33
0.8893,0.1107	-10658.03
0.8391,0.1609	-10661.79
0.9389,0.0611	-10657.76
0.9288,0.0712	-10652.45
0.8917,0.1083	-10666.40
0.9042,0.0958	-10662.19
0.8972,0.1028	-10657.83
0.8418,0.1582	-10658.32
0.9434,0.0566	-10655.08
0.9284,0.0716	-10662.71
0.9093,0.0907	-10657.63
0.9090,0.0910	-10657.63
0.9202,0.0798	-10667.33
0.8440,0.1560	-10666.62
0.9295,0.0705	-10657.59
0.9243,0.0757	-10650.05
0.9205,0.0795	-10655.10
0.9236,0.0764	-10662.54
0.9395,0.0605	-10652.29
0.8336,0.1664	-10670.11
0.9460,0.0540	-10660.84
0.9206,0.0794	-10657.55
0.9201,0.0799	-10660.00
0.9298,0.0702	-10657.60
0.9389,0.0611	-10660.49
0.8400,0.1600	-10665.06
0.9565,0.0435	-10658.53
0.9190,0.0810	-10647.84
0.9281,0.0719	-10662.70
0.9370,0.0630	-10660.41
0.9197,0.0803	-10655.12
0.8423,0.1577	-10666.66
0.9605,0.0395	-10652.45
0.9215,0.0785	-10662.48
0.9255,0.0745	-10660.08
0.9298,0.0702	-10662.77
0.9211,0.0789	-10657.55
0.8401,0.1599	-10675.01
0.9485,0.0515	-10652.26
0.9260,0.0740	-10647.46
0.9295,0.0705	-10657.59
0.9400,0.0600	-10655.03
0.9195,0.0805	-10667.30
0.8054,0.1946	-10670.74
0.9498,0.0502	-10649.33
0.9432,0.0568	-10649.45
0.9276,0.0724	-10657.58
0.9457,0.0543	-10663.68
0.9092,0.0908	-10659.93
0.8310,0.1690	-10668.55
0.9594,0.0406	-10652.42
0.9330,0.0670	-10644.47
0.9116,0.0884	-10650.60
0.9513,0.0487	-10643.36
0.8962,0.1038	-10666.48
0.8359,0.1641	-10665.19
0.9625,0.0375	-10655.75
0.9217,0.0783	-10655.09
0.9235,0.0765	-10662.54
0.9553,0.0447	-10649.27
0.9078,0.0922	-10657.65
0.8578,0.1422	-10662.79
0.9635,0.0365	-10649.27
0.9112,0.0888	-10662.26
0.9367,0.0633	-10644.23
0.9548,0.0452	-10655.37
0.9139,0.0861	-10662.31
0.8560,0.1440	-10671.75
0.9720,0.0280	-10649.46
0.9092,0.0908	-10653.02
0.9154,0.0846	-10657.57
0.9484,0.0516	-10643.53
0.9308,0.0692	-10657.61
0.8668,0.1332	-10675.66
0.9727,0.0273	-10649.49
0.9081,0.0919	-10659.93
0.9108,0.0892	-10664.58
0.9527,0.0473	-10646.29
0.9354,0.0646	-10649.66
0.8685,0.1315	-10660.62
0.9709,0.0291	-10649.42
0.9204,0.0796	-10655.11
0.9100,0.0900	-10650.67
0.9655,0.0345	-10645.97
0.9257,0.0743	-10657.56
0.8405,0.1595	-10668.37
0.9682,0.0318	-10642.52
0.9267,0.0733	-10665.18
0.9085,0.0915	-10659.93
0.9623,0.0377	-10646.02
0.9297,0.0703	-10660.18
0.8002,0.1998	-10676.46
0.9590,0.0410	-10652.41
0.9304,0.0696	-10655.01
0.8830,0.1170	-10672.36
0.9634,0.0366	-10649.27
0.9168,0.0832	-10659.96
0.7752,0.2248	-10674.38
0.9608,0.0392	-10662.05
0.9324,0.0676	-10655.01
0.8930,0.1070	-10662.17
0.9586,0.0414	-10652.40
0.8995,0.1005	-10655.59
0.7620,0.2380	-10678.38
0.9653,0.0347	-10645.97
0.9195,0.0805	-10659.99
0.9061,0.0939	-10666.74
0.9498,0.0502	-10655.21
0.9192,0.0808	-10659.99
0.7540,0.2460	-10679.72
0.9737,0.0263	-10645.91
0.9260,0.0740	-10660.09
0.8811,0.1189	-10676.30
0.9483,0.0517	-10655.17
0.9098,0.0902	-10659.93
0.7760,0.2240	-10674.35
0.9701,0.0299	-10645.92
0.9098,0.0902	-10648.37
0.8682,0.1318	-10660.63
0.9515,0.0485	-10655.26
0.8960,0.1040	-10666.47
0.8096,0.1904	-10677.85
0.9696,0.0304	-10656.31
0.9045,0.0955	-10657.69
0.8883,0.1117	-10662.20
0.9524,0.0476	-10652.29
0.8634,0.1366	-10668.17
0.7573,0.2427	-10677.37
0.9638,0.0362	-10646.00
0.9064,0.0936	-10655.39
0.8892,0.1108	-10662.20
0.9487,0.0513	-10649.34
0.8609,0.1391	-10657.23
0.7414,0.2586	-10677.97
0.9630,0.0370	-10642.75
0.9064,0.0936	-10662.21
0.9004,0.0996	-10657.77
0.9412,0.0588	-10655.05
0.8407,0.1593	-10665.03
0.7266,0.2734	-10687.45
0.9694,0.0306	-10652.83
0.9044,0.0956	-10657.70
0.8915,0.1085	-10670.61
0.9441,0.0559	-10655.09
0.8331,0.1669	-10674.94
0.7169,0.2831	-10681.03
0.9694,0.0306	-10649.38
0.9248,0.0752	-10662.58
0.8876,0.1124	-10664.28
0.9368,0.0632	-10655.01
0.8391,0.1609	-10670.04
0.7164,0.2836	-10684.76
0.9704,0.0296	-10663.36
0.9285,0.0715	-10649.89
0.8722,0.1278	-10670.11
0.9470,0.0530	-10660.90
0.8283,0.1717	-10670.19
0.6950,0.3050	-10682.16
0.9707,0.0293	-10652.92
0.9233,0.0767	-10660.04
0.8805,0.1195	-10666.28
0.9389,0.0611	-10652.29
0.8463,0.1537	-10673.40
0.7189,0.2811	-10681.88
0.9615,0.0385	-10655.70
0.9245,0.0755	-10655.05
0.8761,0.1239	-10668.23
0.9323,0.0677	-10649.76
0.8575,0.1425	-10659.21
0.6959,0.3041	-10682.10
0.9690,0.0310	-10645.93
0.9204,0.0796	-10655.11
0.8744,0.1256	-10664.33
0.9327,0.0673	-10657.63
0.8273,0.1727	-10674.91
0.7009,0.2991	-10685.23
0.9686,0.0314	-10656.21
0.9023,0.0977	-10664.40
0.8555,0.1445	-10669.97
0.9146,0.0854	-10655.21
0.8342,0.1658	-10674.95
0.7383,0.2617	-10680.18
0.9667,0.0333	-10652.69
0.8908,0.1092	-10666.38
0.8437,0.1563	-10666.63
0.8971,0.1029	-10655.67
0.8553,0.1447	-10664.64
0.7214,0.2786	-10682.73
0.9581,0.0419	-10649.25
0.8807,0.1193	-10670.28
0.8416,0.1584	-10668.35
0.8883,0.1117	-10658.05
0.8531,0.1469	-10669.97
0.7277,0.2723	-10687.45
0.9660,0.0340	-10659.35
0.8781,0.1219	-10670.22
0.8128,0.1872	-10674.93
0.8719,0.1281	-10670.11
0.8409,0.1591	-10670.02
0.7350,0.2650	-10681.32
0.9699,0.0301	-10645.92
0.8706,0.1294	-10666.28
0.7844,0.2156	-10666.33
0.8682,0.1318	-10662.52
0.8649,0.1351	-10671.88
0.7083,0.2917	-10680.55
0.9769,0.0231	-10649.69
0.8573,0.1427	-10677.15
0.7829,0.2171	-10674.13
0.8750,0.1250	-10670.16
0.8771,0.1229	-10664.31
0.7282,0.2718	-10682.52
0.9726,0.0274	-10645.91
0.8309,0.1691	-10668.55
0.7878,0.2122	-10667.42
0.8833,0.1167	-10664.28
0.8423,0.1577	-10671.69
0.7523,0.2477	-10680.88
0.9702,0.0298	-10649.40
0.8278,0.1722	-10668.63
0.8556,0.1444	-10666.41
0.8999,0.1001	-10666.56
0.8467,0.1533	-10661.44
0.7528,0.2472	-10678.64
0.9735,0.0265	-10642.31
0.8299,0.1701	-10670.16
0.8849,0.1151	-10664.27
0.8699,0.1301	-10662.48
0.8732,0.1268	-10664.34
0.7470,0.2530	-10678.83
0.9742,0.0258	-10649.55
0.8154,0.1846	-10667.49
0.9015,0.0985	-10659.96
0.8813,0.1187	-10666.29
0.8752,0.1248	-10674.06
0.7776,0.2224	-10678.05
0.9761,0.0239	-10642.22
0.8555,0.1445	-10655.75
0.9062,0.0938	-10657.67
0.8534,0.1466	-10673.49
0.8795,0.1205	-10664.29
0.7924,0.2076	-10672.52
0.9790,0.0210	-10645.98
0.8549,0.1451	-10668.20
0.8920,0.1080	-10653.73
0.8440,0.1560	-10666.62
0.8500,0.1500	-10666.50
0.7795,0.2205	-10676.76
0.9833,0.0167	-10642.06
0.8533,0.1467	-10668.21
0.8745,0.1255	-10666.27
0.8485,0.1515	-10666.53
0.8440,0.1560	-10663.25
0.7931,0.2069	-10673.84
0.9831,0.0169	-10642.06
0.8597,0.1403	-10664.55
0.8897,0.1103	-10655.93
0.8599,0.1401	-10668.17
0.8189,0.1811	-10679.43
0.7635,0.2365	-10677.17
0.9863,0.0137	-10650.60
0.8433,0.1567	-10664.96
0.8918,0.1082	-10649.52
0.8554,0.1446	-10671.75
0.8358,0.1642	-10663.57
0.7610,0.2390	-10677.25
0.9863,0.0137	-10642.04
0.8603,0.1397	-10660.90
0.8980,0.1020	-10655.64
0.8300,0.1700	-10674.92
0.8147,0.1853	-10676.40
0.8050,0.1950	-10672.17
0.9872,0.0128	-10642.05
0.8611,0.1389	-10666.34
0.8862,0.1138	-10664.27
0.8482,0.1518	-10657.93
0.8185,0.1815	-10676.41
0.8025,0.1975	-10666.63
0.9845,0.0155	-10646.20
0.8628,0.1372	-10682.88
0.8864,0.1136	-10672.49
0.8524,0.1476	-10671.72
0.8117,0.1883	-10670.56
0.8206,0.1794	-10674.90
0.9805,0.0195	-10646.02
0.8760,0.1240	-10660.41
0.8886,0.1114	-10660.12
0.8484,0.1516	-10666.53
0.8148,0.1852	-10667.51
0.8095,0.1905	-10670.62
0.9785,0.0215	-10645.97
0.8522,0.1478	-10676.98
0.8707,0.1293	-10664.37
0.8422,0.1578	-10663.32
0.8069,0.1931	-10674.98
0.8377,0.1623	-10665.13
0.9802,0.0198	-10646.01
0.8500,0.1500	-10671.71
0.8733,0.1267	-10666.27
0.8687,0.1313	-10658.73
0.8370,0.1630	-10670.06
0.8609,0.1391	-10668.17
0.9780,0.0220	-10649.75
0.8419,0.1581	-10673.36
0.8659,0.1341	-10668.17
0.8825,0.1175	-10666.30
0.8445,0.1555	-10675.07
0.8766,0.1234	-10656.47
0.9799,0.0201	-10642.12
0.8617,0.1383	-10659.02
0.8396,0.1604	-10663.41
0.8812,0.1188	-10664.28
0.8406,0.1594	-10668.37
0.8969,0.1031	-10657.84
0.9808,0.0192	-10646.03
0.8750,0.1250	-10664.32
0.8450,0.1550	-10664.91
0.9032,0.0968	-10657.72
0.8419,0.1581	-10673.36
0.9010,0.0990	-10659.96
0.9779,0.0221	-10642.17
0.8500,0.1500	-10663.03
0.8586,0.1414	-10668.18
0.8877,0.1123	-10664.28
0.8567,0.1433	-10675.34
0.8741,0.1259	-10664.33
0.9792,0.0208	-10649.84
0.8486,0.1514	-10663.08
0.8787,0.1213	-10676.18
0.8478,0.1522	-10668.26
0.8561,0.1439	-10668.19
0.8384,0.1616	-10666.76
0.9789,0.0211	-10649.82
0.8578,0.1422	-10659.19
0.8963,0.1037	-10662.17
0.8273,0.1727	-10674.91
0.8627,0.1373	-10664.49
0.8345,0.1655	-10666.86
0.9741,0.0259	-10653.17
0.8418,0.1582	-10663.33
0.8984,0.1016	-10664.35
0.8454,0.1546	-10669.99
0.8538,0.1462	-10666.44
0.8383,0.1617	-10661.82
0.9765,0.0235	-10649.66
0.8406,0.1594	-10661.71
0.8767,0.1233	-10668.23
0.8632,0.1368	-10664.48
0.8825,0.1175	-10660.25
0.8363,0.1637	-10666.81
0.9737,0.0263	-10649.52
0.8792,0.1208	-10664.29
0.8894,0.1106	-10653.85
0.8933,0.1067	-10664.30
0.8821,0.1179	-10660.26
0.8129,0.1871	-10660.24
0.9678,0.0322	-10642.54
0.8677,0.1323	-10668.17
0.8811,0.1189	-10658.28
0.9091,0.0909	-10669.14
0.8723,0.1277	-10664.35
0.7988,0.2012	-10676.47
0.9766,0.0234	-10649.67
0.8842,0.1158	-10670.37
0.8537,0.1463	-10657.62
0.9150,0.0850	-10662.33
0.8654,0.1346	-10666.31
0.8313,0.1687	-10673.33
0.9786,0.0214	-10642.15
0.8685,0.1315	-10664.40
0.8520,0.1480	-10676.97
0.9143,0.0857	-10662.31
0.8912,0.1088	-10676.90
0.8523,0.1477	-10661.20
0.9780,0.0220	-10649.75
0.8703,0.1297	-10664.38
0.8780,0.1220	-10668.25
0.9262,0.0738	-10655.04
0.8809,0.1191	-10668.29
0.8278,0.1722	-10671.77
0.9790,0.0210	-10642.14
0.8432,0.1568	-10671.69
0.8754,0.1246	-10656.52
0.9463,0.0537	-10649.39
0.8870,0.1130	-10670.46
0.8492,0.1508	-10668.25
0.9780,0.0220	-10645.96
0.8479,0.1521	-10668.26
0.8587,0.1413	-10662.76
0.9408,0.0592	-10649.51
0.8916,0.1084	-10660.07
0.8749,0.1251	-10672.10
0.9691,0.0309	-10649.37
0.8252,0.1748	-10682.66
0.8598,0.1402	-10666.36
0.9421,0.0579	-10652.27
0.9019,0.0981	-10655.52
0.8800,0.1200	-10662.30
0.9702,0.0298	-10649.40
0.8312,0.1688	-10673.33
0.8637,0.1363	-10657.09
0.9371,0.0629	-10646.91
0.9032,0.0968	-10655.48
0.8603,0.1397	-10671.81
0.9648,0.0352	-10652.60
0.8392,0.1608	-10678.30
0.8529,0.1471	-10666.45
0.9346,0.0654	-10662.99
0.8960,0.1040	-10675.09
0.8711,0.1289	-10666.28
0.9623,0.0377	-10642.79
0.8482,0.1518	-10676.86
0.8553,0.1447	-10677.08
0.9328,0.0672	-10649.75
0.8790,0.1210	-10666.28
0.8697,0.1303	-10675.77
0.9592,0.0408	-10646.10
0.8371,0.1629	-10673.34
0.8298,0.1702	-10681.25
0.9322,0.0678	-10655.01
0.8810,0.1190	-10664.28
0.8820,0.1180	-10662.27
0.9535,0.0465	-10655.32
0.8435,0.1565	-10664.95
0.8395,0.1605	-10666.73
0.9324,0.0676	-10657.63
0.8950,0.1050	-10666.45
0.8601,0.1399	-10662.72
0.9618,0.0382	-10649.26
0.8569,0.1431	-10669.97
0.8549,0.1451	-10668.20
0.9198,0.0802	-10652.67
0.8848,0.1152	-10670.39
0.8508,0.1492	-10664.75
0.9665,0.0335	-10652.68
0.8646,0.1354	-10666.31
0.8616,0.1384	-10660.85
0.9164,0.0836	-10655.17
0.8745,0.1255	-10662.39
0.8495,0.1505	-10666.51
0.9734,0.0266	-10645.91
0.8754,0.1246	-10672.12
0.8867,0.1133	-10672.50
0.9208,0.0792	-10667.36
0.8748,0.1252	-10658.49
0.8730,0.1270	-10662.42
0.9737,0.0263	-10649.52
0.8808,0.1192	-10662.29
0.8838,0.1162	-10658.19
0.9176,0.0824	-10655.15
0.8901,0.1099	-10660.10
0.8576,0.1424	-10664.59
0.9765,0.0235	-10642.21
0.8494,0.1506	-10675.16
0.8666,0.1334	-10671.91
0.9212,0.0788	-10655.09
0.9000,0.1000	-10666.56
0.8753,0.1247	-10660.42
0.9699,0.0301	-10649.39
0.8057,0.1943	-10682.11
0.8954,0.1046	-10666.46
0.9196,0.0804	-10657.55
0.9103,0.0897	-10657.61
0.8951,0.1049	-10666.46
0.9754,0.0246	-10664.32
0.8068,0.1932	-10673.56
0.9004,0.0996	-10670.98
0.9208,0.0792	-10660.01
0.9130,0.0870	-10659.94
0.9080,0.0920	-10653.06
0.9759,0.0241	-10642.23
0.7547,0.2453	-10675.21
0.9075,0.0925	-10657.65
0.9290,0.0710	-10665.31
0.8962,0.1038	-10655.70
0.9161,0.0839	-10669.52
0.9762,0.0238	-10649.65
0.7382,0.2618	-10678.11
0.9146,0.0854	-10657.58
0.9311,0.0689	-10649.80
0.9134,0.0866	-10667.01
0.9021,0.0979	-10662.18
0.9743,0.0257	-10642.28
0.7919,0.2081	-10679.22
0.8996,0.1004	-10666.55
0.9252,0.0748	-10667.63
0.8993,0.1007	-10664.36
0.9052,0.0948	-10653.17
0.9670,0.0330	-10656.08
0.7793,0.2207	-10672.98
0.8929,0.1071	-10653.69
0.9112,0.0888	-10662.26
0.9128,0.0872	-10652.89
0.8961,0.1039	-10664.32
0.9674,0.0326	-10649.33
0.7443,0.2557	-10681.06
0.8903,0.1097	-10658.00
0.8879,0.1121	-10664.28
0.8999,0.1001	-10668.76
0.9039,0.0961	-10657.70
0.9686,0.0314	-10649.36
0.7621,0.2379	-10673.72
0.8879,0.1121	-10664.28
0.9052,0.0948	-10657.68
0.9059,0.0941	-10657.67
0.9158,0.0842	-10667.12
0.9715,0.0285	-10660.03
0.7408,0.2592	-10672.75
0.8867,0.1133	-10656.05
0.9080,0.0920	-10669.09
0.8852,0.1148	-10662.23
0.8939,0.1061	-10674.96
0.9706,0.0294	-10642.42
0.7811,0.2189	-10683.09
0.9027,0.0973	-10662.18
0.8931,0.1069	-10664.30
0.8978,0.1022	-10655.65
0.9145,0.0855	-10657.58
0.9779,0.0221	-10649.75
0.7895,0.2105	-10669.97
0.9091,0.0909	-10671.45
0.9087,0.0913	-10666.83
0.8841,0.1159	-10660.21
0.9002,0.0998	-10655.57
0.9768,0.0232	-10649.68
0.7916,0.2084	-10672.55
0.9261,0.0739	-10649.98
0.9109,0.0891	-10659.93
0.8904,0.1096	-10664.28
0.8974,0.1026	-10660.00
0.9673,0.0327	-10652.72
0.7892,0.2108	-10684.51
0.9137,0.0863	-10655.22
0.9019,0.0981	-10657.74
0.8988,0.1012	-10662.17
0.8855,0.1145	-10656.09
0.9639,0.0361	-10649.28
0.7943,0.2057	-10669.76
0.9095,0.0905	-10657.62
0.9119,0.0881	-10650.59
0.8797,0.1203	-10668.27
0.8758,0.1242	-10666.27
0.9662,0.0338	-10645.96
0.7964,0.2036	-10681.95
0.9062,0.0938	-10659.94
0.9026,0.0974	-10673.31
0.8825,0.1175	-10664.28
0.8711,0.1289	-10668.19
0.9696,0.0304	-10649.38
0.7923,0.2077	-10672.52
0.9056,0.0944	-10657.68
0.9076,0.0924	-10653.08
0.8554,0.1446	-10669.97
0.8682,0.1318	-10668.17
0.9625,0.0375	-10642.77
0.8022,0.1978	-10676.44
0.8835,0.1165	-10660.22
0.9094,0.0906	-10664.54
0.8670,0.1330	-10668.17
0.8533,0.1467	-10664.69
0.9616,0.0384	-10649.26
0.7926,0.2074	-10668.50
0.8783,0.1217	-10658.37
0.9114,0.0886	-10659.93
0.8729,0.1271	-10670.13
0.8448,0.1552	-10676.77
0.9505,0.0495	-10652.27
0.7979,0.2021	-10670.98
0.9039,0.0961	-10650.98
0.9122,0.0878	-10657.60
0.8910,0.1090	-10660.08
0.8439,0.1561	-10670.00
0.9488,0.0512	-10652.26
0.7927,0.2073	-10675.19
0.9199,0.0801	-10657.55
0.9060,0.0940	-10657.67
0.8774,0.1226	-10660.37
0.8330,0.1670	-10670.12
0.9573,0.0427	-10649.26
0.8475,0.1525	-10669.98
0.9270,0.0730	-10652.49
0.9227,0.0773	-10657.55
0.8576,0.1424	-10669.98
0.8511,0.1489	-10668.23
0.9628,0.0372	-10649.27
0.8448,0.1552	-10664.91
0.9323,0.0677	-10660.25
0.9170,0.0830	-10659.96
0.8557,0.1443	-10662.85
0.8451,0.1549	-10668.30
0.9656,0.0344	-10645.97
0.8129,0.1871	-10676.40
0.9415,0.0585	-10652.27
0.9264,0.0736	-10660.10
0.8401,0.1599	-10665.06
0.8500,0.1500	-10663.03
0.9578,0.0422	-10652.38
0.8255,0.1745	-10676.46
0.9455,0.0545	-10652.26
0.9248,0.0752	-10660.07
0.8319,0.1681	-10666.93
0.8551,0.1449	-10664.64
0.9463,0.0537	-10646.52
0.8352,0.1648	-10661.97
0.9356,0.0644	-10657.69
0.9382,0.0618	-10652.30
0.8340,0.1660	-10671.72
0.8481,0.1519	-10663.10
0.9377,0.0623	-10655.02
0.8229,0.1771	-10665.68
0.9376,0.0624	-10649.60
0.9414,0.0586	-10657.83
0.8561,0.1439	-10669.97
0.8614,0.1386	-10662.69
0.9408,0.0592	-10655.04
0.8190,0.1810	-10671.88
0.9347,0.0653	-10657.67
0.9393,0.0607	-10665.99
0.8791,0.1209	-10660.33
0.8753,0.1247	-10660.42
0.9435,0.0565	-10657.89
0.8387,0.1613	-10670.05
0.9335,0.0665	-10652.36
0.9320,0.0680	-10652.39
0.8741,0.1259	-10674.02
0.8966,0.1034	-10668.65
0.9448,0.0552	-10646.58
0.8297,0.1703	-10667.00
0.9277,0.0723	-10660.13
0.9255,0.0745	-10655.04
0.8611,0.1389	-10669.99
0.8866,0.1134	-10662.22
0.9467,0.0533	-10660.89
0.8269,0.1731	-10673.34
0.9354,0.0646	-10655.01
0.9257,0.0743	-10655.04
0.8303,0.1697	-10673.33
0.9168,0.0832	-10669.56
0.9474,0.0526	-10660.93
0.8337,0.1663	-10670.11
0.9393,0.0607	-10657.77
0.9294,0.0706	-10670.48
0.8525,0.1475	-10666.46
0.9103,0.0897	-10657.61
0.9505,0.0495	-10649.32
0.7995,0.2005	-10673.69
0.9434,0.0566	-10663.52
0.9166,0.0834	-10664.75
0.8327,0.1673	-10665.31
0.9160,0.0840	-10659.96
0.9563,0.0437	-10649.26
0.8400,0.1600	-10668.38
0.9445,0.0555	-10657.93
0.9037,0.0963	-10664.42
0.8469,0.1531	-10671.69
0.9125,0.0875	-10659.94
0.9629,0.0371	-10649.27
0.8040,0.1960	-10669.37
0.9445,0.0555	-10655.09
0.9207,0.0793	-10657.55
0.8589,0.1411	-10666.37
0.9228,0.0772	-10665.00
0.9628,0.0372	-10649.27
0.8247,0.1753	-10678.00
0.9458,0.0542	-10655.12
0.8936,0.1064	-10655.79
0.8934,0.1066	-10668.55
0.9225,0.0775	-10650.13
0.9714,0.0286	-10652.97
0.7539,0.2461	-10680.85
0.9602,0.0398	-10646.07
0.9051,0.0949	-10657.68
0.9138,0.0862	-10657.58
0.9334,0.0666	-10655.01
0.9648,0.0352	-10655.91
0.7748,0.2252	-10680.57
0.9652,0.0348	-10652.62
0.8931,0.1069	-10666.42
0.9128,0.0872	-10648.20
0.9412,0.0588	-10657.82
0.9540,0.0460	-10655.34
0.8037,0.1963	-10666.56
0.9585,0.0415	-10652.39
0.8960,0.1040	-10651.40
0.9045,0.0955	-10659.94
0.9328,0.0672	-10655.01
0.9509,0.0491	-10661.17
0.8114,0.1886	-10669.11
0.9660,0.0340	-10649.31
0.8944,0.1056	-10666.44
0.9154,0.0846	-10664.71
0.9296,0.0704	-10652.44
0.9386,0.0614	-10655.02
0.7994,0.2006	-10670.93
0.9596,0.0404	-10652.42
0.9164,0.0836	-10652.78
0.9182,0.0818	-10650.30
0.9122,0.0878	-10652.91
0.9429,0.0571	-10663.48
0.7949,0.2051	-10680.57
0.9537,0.0463	-10652.30
0.9212,0.0788	-10655.09
0.9190,0.0810	-10667.27
0.9112,0.0888	-10657.60
0.9406,0.0594	-10660.56
0.7741,0.2259	-10678.12
0.9444,0.0556	-10655.09
0.9388,0.0612	-10652.29
0.9177,0.0823	-10650.33
0.9212,0.0788	-10662.47
0.9436,0.0564	-10646.63
0.7906,0.2094	-10672.58
0.9446,0.0554	-10655.10
0.9472,0.0528	-10655.15
0.9106,0.0894	-10657.61
0.9139,0.0861	-10659.94
0.9470,0.0530	-10652.26
0.8034,0.1966	-10669.39
0.9417,0.0583	-10666.19
0.9521,0.0479	-10652.29
0.9077,0.0923	-10659.93
0.9108,0.0892	-10657.61
0.9525,0.0475	-10655.29
0.8098,0.1902	-10669.16
0.9362,0.0638	-10655.01
0.9435,0.0565	-10649.45
0.9135,0.0865	-10655.23
0.9237,0.0763	-10657.56
0.9493,0.0507	-10663.99
0.8011,0.1989	-10680.63
0.9303,0.0697	-10655.01
0.9410,0.0590	-10649.51
0.9151,0.0849	-10664.70
0.8946,0.1054	-10662.17
0.9490,0.0510	-10658.11
0.8156,0.1844	-10668.97
0.9259,0.0741	-10667.67
0.9418,0.0582	-10652.27
0.8842,0.1158	-10664.28
0.9018,0.0982	-10659.96
0.9324,0.0676	-10649.76
0.8096,0.1904	-10673.51
0.9280,0.0720	-10657.58
0.9414,0.0586	-10660.60
0.8772,0.1228	-10664.31
0.9063,0.0937	-10671.28
0.9365,0.0635	-10657.70
0.8332,0.1668	-10654.03
0.9223,0.0777	-10662.50
0.9335,0.0665	-10662.93
0.8565,0.1435	-10673.55
0.8935,0.1065	-10666.43
0.9225,0.0775	-10664.99
0.8344,0.1656	-10665.25
0.9266,0.0734	-10660.11
0.9407,0.0593	-10657.81
0.8438,0.1562	-10675.06
0.8736,0.1264	-10668.20
0.9267,0.0733	-10655.03
0.8246,0.1754	-10678.00
0.9402,0.0598	-10660.55
0.9403,0.0597	-10655.04
0.8510,0.1490	-10666.49
0.8942,0.1058	-10668.57
0.9242,0.0758	-10657.56
0.8666,0.1334	-10658.81
0.9383,0.0617	-10655.02
0.9436,0.0564	-10660.71
0.8700,0.1300	-10666.28
0.9059,0.0941	-10653.14
0.8985,0.1015	-10653.44
0.8532,0.1468	-10671.73
0.9334,0.0666	-10660.28
0.9294,0.0706	-10660.17
0.8753,0.1247	-10668.22
0.9218,0.0782	-10657.55
0.8770,0.1230	-10664.31
0.8914,0.1086	-10672.71
0.9310,0.0690	-10662.82
0.9288,0.0712	-10652.45
0.8793,0.1207	-10662.31
0.9275,0.0725	-10647.38
0.8935,0.1065	-10666.43
0.9075,0.0925	-10662.22
0.9345,0.0655	-10657.66
0.8937,0.1063	-10664.30
0.9010,0.0990	-10655.55
0.9352,0.0648	-10649.67
0.8710,0.1290	-10670.10
0.9181,0.0819	-10667.22
0.9301,0.0699	-10660.19
0.8824,0.1176	-10672.34
0.9019,0.0981	-10662.18
0.9256,0.0744	-10657.56
0.8544,0.1456	-10673.51
0.9086,0.0914	-10655.34
0.9348,0.0652	-10657.67
0.8807,0.1193	-10666.28
0.8974,0.1026	-10662.17
0.9130,0.0870	-10666.99
0.8293,0.1707	-10674.91
0.9056,0.0944	-10662.20
0.9263,0.0737	-10649.97
0.8946,0.1054	-10651.48
0.8893,0.1107	-10664.28
0.9260,0.0740	-10649.98
0.8331,0.1669	-10674.94
0.9146,0.0854	-10664.69
0.9340,0.0660	-10647.05
0.9156,0.0844	-10655.19
0.8873,0.1127	-10664.27
0.9204,0.0796	-10662.45
0.8533,0.1467	-10668.21
0.9158,0.0842	-10657.57
0.9326,0.0674	-10652.38
0.9071,0.0929	-10662.21
0.8963,0.1037	-10660.01
0.9100,0.0900	-10662.25
0.8461,0.1539	-10664.88
0.9197,0.0803	-10669.74
0.9399,0.0601	-10657.78
0.8836,0.1164	-10664.28
0.8757,0.1243	-10670.18
0.9201,0.0799	-10662.44
0.8398,0.1602	-10661.75
0.9134,0.0866	-10667.01
0.9256,0.0744	-10665.13
0.8810,0.1190	-10650.27
0.8607,0.1393	-10664.53
0.9136,0.0864	-10659.94
0.8371,0.1629	-10678.25
0.9066,0.0934	-10666.75
0.9404,0.0596	-10655.04
0.8607,0.1393	-10673.63
0.8718,0.1282	-10660.52
0.9266,0.0734	-10662.64
0.8304,0.1696	-10670.16
0.9178,0.0822	-10655.15
0.9319,0.0681	-10655.01
0.8295,0.1705	-10667.01
0.8848,0.1152	-10664.27
0.9065,0.0935	-10657.66
0.8267,0.1733	-10671.78
0.9354,0.0646	-10649.66
0.9190,0.0810	-10652.70
0.8120,0.1880	-10679.33
0.8929,0.1071	-10655.81
0.9034,0.0966	-10655.48
0.8005,0.1995	-10675.06
0.9446,0.0554	-10649.42
0.9228,0.0772	-10652.59
0.8055,0.1945	-10667.89
0.8927,0.1073	-10674.89
0.9020,0.0980	-10664.39
0.8030,0.1970	-10670.81
0.9412,0.0588	-10655.05
0.9055,0.0945	-10659.94
0.8235,0.1765	-10671.82
0.9071,0.0929	-10653.10
0.9084,0.0916	-10657.64
0.8200,0.1800	-10662.77
0.9527,0.0473	-10649.29
0.8980,0.1020	-10659.99
0.8291,0.1709	-10670.18
0.8814,0.1186	-10666.29
0.8822,0.1178	-10664.28
0.8101,0.1899	-10674.95
0.9430,0.0570	-10652.26
0.9110,0.0890	-10659.93
0.8344,0.1656	-10673.33
0.8877,0.1123	-10660.14
0.8809,0.1191	-10652.28
0.8064,0.1936	-10670.71
0.9266,0.0734	-10660.11
0.9120,0.0880	-10671.63
0.8640,0.1360	-10653.37
0.8786,0.1214	-10666.28
0.8911,0.1089	-10670.59
0.8241,0.1759	-10668.72
0.9370,0.0630	-10655.01
0.9157,0.0843	-10657.57
0.8944,0.1056	-10668.58
0.8828,0.1172	-10668.32
0.8754,0.1246	-10674.07
0.8407,0.1593	-10676.68
0.9370,0.0630	-10657.71
0.9289,0.0711	-10657.59
0.8979,0.1021	-10666.51
0.8860,0.1140	-10668.37
0.8840,0.1160	-10660.21
0.8274,0.1726	-10667.07
0.9452,0.0548	-10657.95
0.9330,0.0670	-10655.01
0.9134,0.0866	-10655.23
0.8957,0.1043	-10653.57
0.8676,0.1324	-10666.29
0.8519,0.1481	-10662.97
0.9426,0.0574	-10652.27
0.9280,0.0720	-10652.47
0.9334,0.0666	-10660.29
0.9013,0.0987	-10664.38
0.8804,0.1196	-10670.28
0.8414,0.1586	-10670.02
0.9486,0.0514	-10652.26
0.9156,0.0844	-10659.95
0.9548,0.0452	-10649.27
0.8938,0.1062	-10664.30
0.9025,0.0975	-10668.86
0.8624,0.1376	-10668.17
0.9562,0.0438	-10667.77
0.9192,0.0808	-10662.42
0.9475,0.0525	-10652.26
0.8839,0.1161	-10666.31
0.9025,0.0975	-10666.63
0.8608,0.1392	-10666.35
0.9580,0.0420	-10646.13
0.9210,0.0790	-10652.64
0.9589,0.0411	-10652.40
0.8959,0.1041	-10660.01
0.8731,0.1269	-10668.20
0.8733,0.1267	-10670.13
0.9580,0.0420	-10646.13
0.9311,0.0689	-10657.61
0.9551,0.0449	-10649.27
0.8742,0.1258	-10664.33
0.8712,0.1288	-10666.28
0.8527,0.1473	-10668.21
0.9574,0.0426	-10646.14
0.9540,0.0460	-10652.31
0.9567,0.0433	-10658.54
0.8940,0.1060	-10666.43
0.8694,0.1306	-10662.49
0.8799,0.1201	-10674.25
0.9632,0.0368	-10649.27
0.9588,0.0412	-10655.55
0.9603,0.0397	-10646.07
0.8897,0.1103	-10670.54
0.8869,0.1131	-10656.04
0.8735,0.1265	-10662.41
0.9612,0.0388	-10649.26
0.9640,0.0360	-10649.28
0.9624,0.0376	-10649.27
0.8996,0.1004	-10659.98
0.8781,0.1219	-10666.27
0.8761,0.1239	-10660.40
0.9626,0.0374	-10655.76
0.9623,0.0377	-10649.26
0.9668,0.0332	-10659.43
0.8965,0.1035	-10666.48
0.8753,0.1247	-10674.07
0.8815,0.1185	-10660.27
0.9662,0.0338	-10642.61
0.9513,0.0487	-10655.25
0.9608,0.0392	-10655.66
0.8939,0.1061	-10664.30
0.8655,0.1345	-10666.30
0.8488,0.1512	-10680.33
0.9655,0.0345	-10645.97
0.9515,0.0485	-10649.30
0.9636,0.0364	-10646.00
0.9022,0.0978	-10662.18
0.8698,0.1302	-10658.69
0.8389,0.1611	-10666.74
0.9689,0.0311	-10645.93
0.9595,0.0405	-10652.42
0.9614,0.0386	-10658.90
0.9135,0.0865	-10664.65
0.8424,0.1576	-10663.31
0.8472,0.1528	-10668.27
0.9674,0.0326	-10652.72
0.9570,0.0430	-10646.16
0.9660,0.0340	-10649.31
0.9193,0.0807	-10659.99
0.8285,0.1715	-10668.61
0.8467,0.1533	-10668.28
0.9685,0.0315	-10652.78
0.9499,0.0501	-10652.27
0.9686,0.0314	-10652.78
0.9344,0.0656	-10657.66
0.8293,0.1707	-10673.33
0.8374,0.1626	-10679.89
0.9715,0.0285	-10656.50
0.9517,0.0483	-10655.26
0.9681,0.0319	-10649.35
0.9260,0.0740	-10660.09
0.8355,0.1645	-10668.46
0.8548,0.1452	-10678.84
0.9710,0.0290	-10649.42
0.9204,0.0796	-10660.00
0.9771,0.0229	-10645.95
0.9259,0.0741	-10660.09
0.8443,0.1557	-10668.31
0.8400,0.1600	-10671.69
0.9591,0.0409	-10655.57
0.9236,0.0764	-10655.06
0.9760,0.0240	-10642.23
0.9253,0.0747	-10660.08
0.8341,0.1659	-10679.79
0.8705,0.1295	-10666.28
0.9647,0.0353	-10649.29
0.9276,0.0724	-10655.03
0.9814,0.0186	-10650.02
0.9342,0.0658	-10662.96
0.8018,0.1982	-10669.45
0.8862,0.1138	-10670.43
0.9603,0.0397	-10655.63
0.9358,0.0642	-10660.37
0.9734,0.0266	-10649.51
0.9371,0.0629	-10646.91
0.8065,0.1935	-10676.42
0.8783,0.1217	-10664.30
0.9543,0.0457	-10652.31
0.9387,0.0613	-10657.75
0.9722,0.0278	-10645.91
0.9398,0.0602	-10655.03
0.7785,0.2215	-10679.30
0.8698,0.1302	-10660.58
0.9617,0.0383	-10655.71
0.9195,0.0805	-10662.43
0.9734,0.0266	-10653.11
0.9478,0.0522	-10658.05
0.7670,0.2330	-10677.07
0.8594,0.1406	-10669.98
0.9573,0.0427	-10652.37
0.9066,0.0934	-10659.93
0.9719,0.0281	-10645.91
0.9469,0.0531	-10649.38
0.7349,0.2651	-10680.30
0.8705,0.1295	-10668.18
0.9540,0.0460	-10655.34
0.8920,0.1080	-10662.18
0.9723,0.0277	-10653.03
0.9565,0.0435	-10646.17
0.7208,0.2792	-10685.60
0.8624,0.1376	-10666.33
0.9616,0.0384	-10652.48
0.9038,0.0962	-10657.70
0.9700,0.0300	-10645.92
0.9588,0.0412	-10652.40
0.7453,0.2547	-10683.18
0.8365,0.1635	-10668.44
0.9632,0.0368	-10655.80
0.9165,0.0835	-10657.56
0.9723,0.0277	-10653.02
0.9547,0.0453	-10652.32
0.7569,0.2431	-10684.20
0.8289,0.1711	-10662.29
0.9670,0.0330	-10652.70
0.9084,0.0916	-10657.64
0.9642,0.0358	-10652.57
0.9545,0.0455	-10655.36
0.7820,0.2180	-10671.60
0.8235,0.1765	-10664.12
0.9764,0.0236	-10649.66
0.8904,0.1096	-10658.00
0.9612,0.0388	-10652.47
0.9563,0.0437	-10658.52
0.7431,0.2569	-10678.97
0.8345,0.1655	-10665.24
0.9755,0.0245	-10649.61
0.8626,0.1374	-10660.82
0.9647,0.0353	-10645.98
0.9627,0.0373	-10649.27
0.7493,0.2507	-10679.85
0.8003,0.1997	-10677.84
0.9767,0.0233	-10645.94
0.8839,0.1161	-10664.28
0.9649,0.0351	-10662.55
0.9514,0.0486	-10661.20
0.7441,0.2559	-10680.00
0.8566,0.1434	-10662.82
0.9761,0.0239	-10649.64
0.8598,0.1402	-10666.36
0.9628,0.0372	-10659.03
0.9601,0.0399	-10652.44
0.7243,0.2757	-10676.84
0.8358,0.1642	-10670.08
0.9789,0.0211	-10642.14
0.8744,0.1256	-10670.15
0.9597,0.0403	-10661.94
0.9678,0.0322	-10652.74
0.7299,0.2701	-10686.45
0.8402,0.1598	-10666.71
0.9766,0.0234	-10645.94
0.8883,0.1117	-10660.13
0.9449,0.0551	-10652.26
0.9650,0.0350	-10655.92
0.7024,0.2976	-10682.61
0.8210,0.1790	-10673.38
0.9718,0.0282	-10649.45
0.8915,0.1085	-10672.71
0.9545,0.0455	-10652.32
0.9639,0.0361	-10655.85
0.7108,0.2892	-10687.61
0.8461,0.1539	-10664.88
0.9674,0.0326	-10649.33
0.9168,0.0832	-10659.96
0.9416,0.0584	-10652.27
0.9583,0.0417	-10658.66
0.7314,0.2686	-10683.43
0.8387,0.1613	-10668.40
0.9739,0.0261	-10653.15
0.9275,0.0725	-10652.48
0.9456,0.0544	-10652.26
0.9599,0.0401	-10642.90
0.7708,0.2292	-10676.97
0.8346,0.1654	-10671.71
0.9722,0.0278	-10653.02
0.9296,0.0704	-10649.86
0.9409,0.0591	-10655.04
0.9549,0.0451	-10664.53
0.7714,0.2286	-10678.17
0.7893,0.2107	-10673.94
0.9738,0.0262	-10645.91
0.9446,0.0554	-10655.09
0.9440,0.0560	-10652.26
0.9467,0.0533	-10652.26
0.7770,0.2230	-10676.82
0.8142,0.1858	-10674.92
0.9695,0.0305	-10649.38
0.9493,0.0507	-10661.05
0.9459,0.0541	-10657.98
0.9446,0.0554	-10657.93
0.8025,0.1975	-10673.63
0.8180,0.1820	-10667.39
0.9642,0.0358	-10649.28
0.9436,0.0564	-10660.71
0.9378,0.0622	-10652.30
0.9546,0.0454	-10646.23
0.8256,0.1744	-10664.02
0.8269,0.1731	-10663.96
0.9611,0.0389	-10652.46
0.9388,0.0612	-10649.56
0.9381,0.0619	-10657.74
0.9574,0.0426	-10655.48
0.7806,0.2194	-10672.93
0.8240,0.1760	-10664.09
0.9650,0.0350	-10652.61
0.9409,0.0591	-10663.35
0.9312,0.0688	-10662.82
0.9563,0.0437	-10652.35
0.7659,0.2341	-10694.88
0.8508,0.1492	-10664.75
0.9599,0.0401	-10655.61
0.9424,0.0576	-10655.06
0.9330,0.0670	-10660.27
0.9574,0.0426	-10661.70
0.7872,0.2128	-10679.23
0.8421,0.1579	-10673.36
0.9561,0.0439	-10655.43
0.9373,0.0627	-10657.72
0.9477,0.0523	-10649.36
0.9485,0.0515	-10655.17
0.7842,0.2158	-10670.22
0.8133,0.1867	-10666.10
0.9422,0.0578	-10652.27
0.9224,0.0776	-10657.55
0.9508,0.0492	-10655.23
0.9500,0.0500	-10649.32
0.7781,0.2219	-10673.03
0.8211,0.1789	-10676.42
0.9468,0.0532	-10649.38
0.9155,0.0845	-10650.42
0.9427,0.0573	-10652.27
0.9626,0.0374	-10655.76
0.7920,0.2080	-10676.54
0.8093,0.1907	-10669.18
0.9565,0.0435	-10658.53
0.9261,0.0739	-10655.04
0.9261,0.0739	-10652.51
0.9644,0.0356	-10662.48
0.7355,0.2645	-10682.32
0.8066,0.1934	-10670.70
0.9459,0.0541	-10646.53
0.9371,0.0629	-10655.01
0.9283,0.0717	-10660.14
0.9709,0.0291	-10645.91
0.7475,0.2525	-10682.07
0.8060,0.1940	-10666.45
0.9267,0.0733	-10652.50
0.9363,0.0637	-10652.32
0.9400,0.0600	-10649.53
0.9631,0.0369	-10649.27
0.7528,0.2472	-10683.10
0.8292,0.1708	-10671.75
0.9271,0.0729	-10662.66
0.9297,0.0703	-10660.18
0.9259,0.0741	-10655.04
0.9609,0.0391	-10646.06
0.7080,0.2920	-10683.22
0.8240,0.1760	-10661.00
