#isoforms=['ENSG00000110080.SE.2.A.up_ENSG00000110080.SE.2.A.SE1_ENSG00000110080.SE.2.A.dn','ENSG00000110080.SE.2.B.up_ENSG00000110080.SE.2.B.dn']	exon_lens=('ENSG00000110080.SE.2.A.up',61),('ENSG00000110080.SE.2.A.SE1',96),('ENSG00000110080.SE.2.A.dn',190),('ENSG00000110080.SE.2.B.up',61),('ENSG00000110080.SE.2.B.dn',190)	iters=5000	burn_in=500	lag=10	percent_accept=85.03	proposal_type=drift	counts=(0,0):95,(1,0):49,(1,1):320	assigned_counts=0:156,1:213	chrom=chr11	strand=+	mRNA_starts=126407574,126407574	mRNA_ends=126408496,126408496
sampled_psi	log_score
0.2765,0.7235	-2251.97
0.3706,0.6294	-2277.94
0.3131,0.6869	-2260.85
0.2968,0.7032	-2260.84
0.2971,0.7029	-2259.11
0.3136,0.6864	-2265.56
0.2871,0.7129	-2266.55
0.3540,0.6460	-2278.66
0.2941,0.7059	-2259.14
0.3179,0.6821	-2273.17
0.3123,0.6877	-2267.94
0.3454,0.6546	-2275.11
0.3121,0.6879	-2260.83
0.3395,0.6605	-2266.57
0.2939,0.7061	-2244.24
0.3541,0.6459	-2280.46
0.3803,0.6197	-2278.57
0.3625,0.6375	-2284.14
0.3155,0.6845	-2263.99
0.3590,0.6410	-2276.81
0.2847,0.7153	-2257.50
0.3654,0.6346	-2273.51
0.3855,0.6145	-2277.76
0.3322,0.6678	-2271.27
0.3111,0.6889	-2272.75
0.3639,0.6361	-2270.67
0.2573,0.7427	-2257.86
0.4064,0.5936	-2278.86
0.3698,0.6302	-2284.86
0.3544,0.6456	-2275.05
0.3613,0.6387	-2275.67
0.3662,0.6338	-2275.18
0.2316,0.7684	-2239.16
0.4482,0.5518	-2290.52
0.3090,0.6910	-2272.06
0.4066,0.5934	-2284.54
0.3229,0.6771	-2264.06
0.3482,0.6518	-2268.80
0.2438,0.7562	-2243.31
0.4013,0.5987	-2280.13
0.2936,0.7064	-2247.73
0.3975,0.6025	-2282.05
0.3075,0.6925	-2255.10
0.3724,0.6276	-2278.48
0.2721,0.7279	-2244.16
0.3768,0.6232	-2287.07
0.3033,0.6967	-2259.95
0.3619,0.6381	-2271.70
0.3263,0.6737	-2274.28
0.3462,0.6538	-2270.01
0.3004,0.6996	-2252.34
0.4016,0.5984	-2284.53
0.2915,0.7085	-2259.18
0.3999,0.6001	-2280.07
0.3498,0.6502	-2276.92
0.3212,0.6788	-2260.29
0.3350,0.6650	-2258.90
0.3887,0.6113	-2272.91
0.2892,0.7108	-2259.22
0.3562,0.6438	-2280.38
0.3397,0.6603	-2277.88
0.3226,0.6774	-2262.57
0.3547,0.6453	-2267.87
0.3678,0.6322	-2276.84
0.2975,0.7025	-2265.99
0.3942,0.6058	-2285.44
0.3736,0.6264	-2267.64
0.3189,0.6811	-2264.01
0.3340,0.6660	-2265.73
0.3788,0.6212	-2281.02
0.2745,0.7255	-2240.33
0.3945,0.6055	-2277.30
0.3404,0.6596	-2271.90
0.2752,0.7248	-2251.99
0.3521,0.6479	-2272.00
0.3505,0.6495	-2268.89
0.2801,0.7199	-2255.73
0.4032,0.5968	-2279.43
0.3560,0.6440	-2281.57
0.2889,0.7111	-2253.82
0.3199,0.6801	-2272.32
0.3859,0.6141	-2276.85
0.2717,0.7283	-2250.07
0.3402,0.6598	-2273.22
0.3540,0.6460	-2275.65
0.2632,0.7368	-2249.20
0.2565,0.7435	-2238.77
0.4004,0.5996	-2277.26
0.2957,0.7043	-2262.59
0.3509,0.6491	-2267.67
0.3396,0.6604	-2269.90
0.2708,0.7292	-2266.92
0.2986,0.7014	-2252.28
0.4079,0.5921	-2281.95
0.2969,0.7031	-2248.77
0.3584,0.6416	-2277.39
0.3428,0.6572	-2268.64
0.2397,0.7603	-2236.56
0.3096,0.6904	-2264.81
0.3951,0.6049	-2276.05
0.3067,0.6933	-2268.12
0.3539,0.6461	-2277.45
0.3390,0.6610	-2265.89
0.2691,0.7309	-2249.10
0.3351,0.6649	-2266.45
0.3376,0.6624	-2266.52
0.3409,0.6591	-2273.22
0.3173,0.6827	-2267.06
0.2914,0.7086	-2267.17
0.2632,0.7368	-2240.97
0.3193,0.6807	-2282.18
0.3170,0.6830	-2264.77
0.3634,0.6366	-2270.64
0.2730,0.7270	-2252.02
0.2573,0.7427	-2265.28
0.2793,0.7207	-2259.54
0.2801,0.7199	-2258.56
0.3493,0.6507	-2275.69
0.3240,0.6760	-2272.17
0.2964,0.7036	-2260.85
0.2528,0.7472	-2251.74
0.2868,0.7132	-2262.01
0.2875,0.7125	-2271.97
0.2922,0.7078	-2260.05
0.3324,0.6676	-2262.20
0.2682,0.7318	-2249.11
0.2689,0.7311	-2258.11
0.3042,0.6958	-2245.06
0.3019,0.6981	-2250.73
0.2823,0.7177	-2254.76
0.3365,0.6635	-2262.41
0.2811,0.7189	-2265.10
0.3212,0.6788	-2277.50
0.3420,0.6580	-2269.93
0.2810,0.7190	-2264.17
0.3061,0.6939	-2254.24
0.3617,0.6383	-2272.26
0.2908,0.7092	-2261.86
0.3160,0.6840	-2267.08
0.3666,0.6334	-2277.92
0.3472,0.6528	-2278.24
0.3162,0.6838	-2276.33
0.3363,0.6637	-2274.64
0.2806,0.7194	-2255.72
0.3067,0.6933	-2264.05
0.3313,0.6687	-2267.07
0.3372,0.6628	-2261.10
0.2619,0.7381	-2239.91
0.3075,0.6925	-2264.85
0.3281,0.6719	-2263.45
0.2986,0.7014	-2252.28
0.3230,0.6770	-2261.10
0.3185,0.6815	-2254.88
0.3037,0.6963	-2258.29
0.3709,0.6291	-2275.83
0.3238,0.6762	-2268.49
0.2688,0.7312	-2251.11
0.3631,0.6369	-2275.12
0.3423,0.6577	-2275.16
0.3019,0.6981	-2270.01
0.3712,0.6288	-2278.47
0.2955,0.7045	-2266.08
0.2962,0.7038	-2263.45
0.3351,0.6649	-2273.99
0.3859,0.6141	-2276.38
0.3343,0.6657	-2272.63
0.3459,0.6541	-2266.82
0.3148,0.6852	-2252.32
0.3047,0.6953	-2264.08
0.3249,0.6751	-2275.07
0.4035,0.5965	-2288.05
0.2672,0.7328	-2247.11
0.3387,0.6613	-2279.93
0.3438,0.6562	-2277.07
0.2542,0.7458	-2255.96
0.2978,0.7022	-2252.25
0.4506,0.5494	-2286.72
0.2988,0.7012	-2272.75
0.3126,0.6874	-2272.66
0.3596,0.6404	-2284.89
0.2620,0.7380	-2260.62
0.3087,0.6913	-2260.80
0.4603,0.5397	-2288.70
0.3190,0.6810	-2276.90
0.3180,0.6820	-2261.72
0.3472,0.6528	-2274.45
0.2209,0.7791	-2230.99
0.3176,0.6824	-2264.00
0.4452,0.5548	-2288.15
0.2924,0.7076	-2266.23
0.2965,0.7035	-2243.57
0.3095,0.6905	-2256.79
0.3117,0.6883	-2271.13
0.3313,0.6687	-2269.88
0.3972,0.6028	-2285.38
0.3087,0.6913	-2265.63
0.3037,0.6963	-2265.76
0.3339,0.6661	-2267.80
0.2919,0.7081	-2260.06
0.3897,0.6103	-2286.00
0.3960,0.6040	-2282.03
0.2985,0.7015	-2256.55
0.3045,0.6955	-2267.39
0.3694,0.6306	-2267.24
0.2912,0.7088	-2266.30
0.4020,0.5980	-2281.75
0.4320,0.5680	-2286.31
0.2900,0.7100	-2273.53
0.2995,0.7005	-2265.05
0.3715,0.6285	-2283.20
0.3327,0.6673	-2273.36
0.4051,0.5949	-2284.15
0.3849,0.6151	-2291.81
0.2824,0.7176	-2262.22
0.3245,0.6755	-2275.09
0.3278,0.6722	-2274.93
0.3196,0.6804	-2274.60
0.4294,0.5706	-2284.25
0.3807,0.6193	-2288.32
0.2624,0.7376	-2237.85
0.3161,0.6839	-2269.40
0.3313,0.6687	-2253.72
0.3524,0.6476	-2272.61
0.4194,0.5806	-2280.85
0.3991,0.6009	-2285.35
0.2604,0.7396	-2249.27
0.2945,0.7055	-2255.64
0.3447,0.6553	-2269.34
0.3353,0.6647	-2264.40
0.4343,0.5657	-2288.76
0.4014,0.5986	-2282.93
0.2940,0.7060	-2249.50
0.2754,0.7246	-2251.02
0.3361,0.6639	-2279.41
0.3180,0.6820	-2264.77
0.4258,0.5742	-2288.85
0.3743,0.6257	-2271.81
0.3136,0.6864	-2262.43
0.2745,0.7255	-2264.63
0.2728,0.7272	-2251.04
0.2771,0.7229	-2246.21
0.3570,0.6430	-2272.11
0.3697,0.6303	-2274.20
0.3104,0.6896	-2258.42
0.2648,0.7352	-2256.31
0.3073,0.6927	-2252.66
0.2831,0.7169	-2254.75
0.3725,0.6275	-2277.43
0.3530,0.6470	-2265.96
0.3196,0.6804	-2264.02
0.2913,0.7087	-2257.40
0.3329,0.6671	-2270.57
0.3099,0.6901	-2262.41
0.3605,0.6395	-2271.07
0.3357,0.6643	-2271.24
0.2943,0.7057	-2262.64
0.2746,0.7254	-2251.99
0.3155,0.6845	-2267.09
0.3309,0.6691	-2271.99
0.3635,0.6365	-2274.57
0.3381,0.6619	-2265.19
0.3326,0.6674	-2258.03
0.3129,0.6871	-2272.65
0.3120,0.6880	-2267.95
0.3541,0.6459	-2266.63
0.3657,0.6343	-2275.72
0.3257,0.6743	-2263.39
0.3460,0.6540	-2268.10
0.3144,0.6856	-2267.11
0.2909,0.7091	-2252.95
0.3531,0.6469	-2271.42
0.2794,0.7206	-2246.27
0.3001,0.6999	-2263.34
0.3405,0.6595	-2273.88
0.2835,0.7165	-2266.80
0.2887,0.7113	-2262.84
0.3321,0.6679	-2271.97
0.2742,0.7258	-2249.08
0.3276,0.6724	-2279.97
0.3282,0.6718	-2265.60
0.2866,0.7134	-2258.37
0.2726,0.7274	-2258.90
0.3402,0.6598	-2267.26
0.2892,0.7108	-2245.73
0.3201,0.6799	-2277.58
0.3398,0.6602	-2265.26
0.3155,0.6845	-2276.39
0.2603,0.7397	-2247.19
0.3389,0.6611	-2271.90
0.2931,0.7069	-2272.36
0.3185,0.6815	-2255.64
0.3263,0.6737	-2278.63
0.3194,0.6806	-2267.04
0.2894,0.7106	-2241.25
0.3328,0.6672	-2266.40
0.2962,0.7038	-2272.10
0.3097,0.6903	-2264.01
0.3175,0.6825	-2254.05
0.3067,0.6933	-2264.05
0.2347,0.7653	-2241.39
0.3494,0.6506	-2270.09
0.2720,0.7280	-2263.85
0.3129,0.6871	-2265.57
0.3255,0.6745	-2275.77
0.3187,0.6813	-2267.81
0.2564,0.7436	-2231.31
0.3608,0.6392	-2280.81
0.2795,0.7205	-2268.05
0.3402,0.6598	-2269.91
0.3428,0.6572	-2273.85
0.2883,0.7117	-2242.07
0.2464,0.7536	-2251.04
0.3395,0.6605	-2277.89
0.2685,0.7315	-2238.08
0.3217,0.6783	-2270.76
0.3275,0.6725	-2259.12
0.3067,0.6933	-2250.18
0.2562,0.7438	-2239.83
0.3833,0.6167	-2282.92
0.2799,0.7201	-2248.17
0.3066,0.6934	-2266.50
0.3026,0.6974	-2261.62
0.3434,0.6566	-2279.68
0.2929,0.7071	-2242.41
0.3994,0.6006	-2282.09
0.2622,0.7378	-2254.40
0.3095,0.6905	-2256.79
0.3195,0.6805	-2264.02
0.3164,0.6836	-2258.60
0.2889,0.7111	-2256.53
0.3915,0.6085	-2278.00
0.2808,0.7192	-2254.78
0.2819,0.7181	-2256.63
0.2991,0.7009	-2263.36
0.3094,0.6906	-2269.64
0.2891,0.7109	-2252.92
0.3343,0.6657	-2276.07
0.2922,0.7078	-2268.02
0.2817,0.7183	-2266.93
0.3045,0.6955	-2257.48
0.3459,0.6541	-2265.54
0.2938,0.7062	-2252.13
0.3272,0.6728	-2273.52
0.3154,0.6846	-2264.77
0.3317,0.6683	-2278.28
0.3494,0.6506	-2275.68
0.3525,0.6475	-2270.18
0.3090,0.6910	-2264.82
0.3542,0.6458	-2287.66
0.3048,0.6952	-2250.06
0.3598,0.6402	-2282.57
0.3684,0.6316	-2283.86
0.3501,0.6499	-2274.44
0.3060,0.6940	-2265.69
0.3465,0.6535	-2271.92
0.2723,0.7277	-2263.82
0.3574,0.6426	-2274.47
0.4083,0.5917	-2283.81
0.4132,0.5868	-2281.12
0.3385,0.6615	-2273.91
0.3718,0.6282	-2282.67
0.3599,0.6401	-2274.50
0.3675,0.6325	-2280.10
0.4281,0.5719	-2287.94
0.3800,0.6200	-2270.73
0.3049,0.6951	-2255.01
0.3532,0.6468	-2269.00
0.4053,0.5947	-2282.23
0.3937,0.6063	-2275.95
0.4404,0.5596	-2285.42
0.3929,0.6071	-2278.07
0.3520,0.6480	-2276.27
0.3377,0.6623	-2276.62
0.3620,0.6380	-2282.47
0.3819,0.6181	-2289.20
0.3764,0.6236	-2281.54
0.3841,0.6159	-2281.49
0.3492,0.6508	-2275.06
0.3181,0.6819	-2273.92
0.3654,0.6346	-2274.61
0.3778,0.6222	-2277.53
0.3680,0.6320	-2269.81
0.3786,0.6214	-2280.53
0.3490,0.6510	-2270.08
0.3174,0.6826	-2254.04
0.3715,0.6285	-2280.57
0.3862,0.6138	-2281.96
0.3703,0.6297	-2275.81
0.3926,0.6074	-2277.62
0.3500,0.6500	-2271.34
0.3201,0.6799	-2278.34
0.4018,0.5982	-2276.57
0.3532,0.6468	-2273.23
0.4130,0.5870	-2281.81
0.4107,0.5893	-2287.11
0.3993,0.6007	-2283.72
0.3276,0.6724	-2267.03
0.4005,0.5995	-2279.29
0.3556,0.6444	-2273.86
0.3746,0.6254	-2283.10
0.3624,0.6376	-2284.15
0.3550,0.6450	-2279.23
0.3119,0.6881	-2270.33
0.3571,0.6429	-2273.88
0.3947,0.6053	-2278.59
0.3677,0.6323	-2274.67
0.3754,0.6246	-2271.37
0.3122,0.6878	-2260.05
0.3210,0.6790	-2279.02
0.3293,0.6707	-2272.74
0.3923,0.6077	-2282.86
0.3300,0.6700	-2274.14
0.3773,0.6227	-2275.02
0.3161,0.6839	-2263.22
0.3606,0.6394	-2272.22
0.2897,0.7103	-2249.34
0.3543,0.6457	-2269.64
0.3126,0.6874	-2275.03
0.3826,0.6174	-2285.80
0.3788,0.6212	-2275.58
0.3383,0.6617	-2269.89
0.2833,0.7167	-2246.39
0.3575,0.6425	-2273.89
0.3031,0.6969	-2256.62
0.4272,0.5728	-2285.89
0.3401,0.6599	-2263.28
0.3517,0.6483	-2271.38
0.2917,0.7083	-2252.08
0.4116,0.5884	-2285.67
0.3418,0.6582	-2273.21
0.4141,0.5859	-2285.68
0.3456,0.6544	-2270.64
0.3423,0.6577	-2266.02
0.3060,0.6940	-2263.24
0.4295,0.5705	-2285.96
0.3184,0.6816	-2264.01
0.3943,0.6057	-2282.43
0.3507,0.6493	-2268.90
0.2968,0.7032	-2261.70
0.2887,0.7113	-2258.33
0.4195,0.5805	-2283.46
0.2773,0.7227	-2254.84
0.3332,0.6668	-2269.18
0.3963,0.6037	-2282.87
0.3184,0.6816	-2266.29
0.3353,0.6647	-2265.09
0.3636,0.6364	-2283.53
0.2942,0.7058	-2250.39
0.3048,0.6952	-2272.32
0.4249,0.5751	-2287.35
0.3270,0.6730	-2264.14
0.2938,0.7062	-2262.65
0.3402,0.6598	-2272.56
0.3044,0.6956	-2256.65
0.3225,0.6775	-2263.31
0.4329,0.5671	-2279.32
0.3260,0.6740	-2271.38
0.3298,0.6702	-2274.85
0.2946,0.7054	-2264.37
0.3057,0.6943	-2255.86
0.3647,0.6353	-2273.48
0.3847,0.6153	-2277.74
0.3360,0.6640	-2280.78
0.3464,0.6536	-2268.75
0.3167,0.6833	-2261.69
0.3383,0.6617	-2276.60
0.4110,0.5890	-2285.31
0.3785,0.6215	-2285.49
0.3554,0.6446	-2263.14
0.3598,0.6402	-2272.77
0.3800,0.6200	-2278.57
0.3571,0.6429	-2266.24
0.4027,0.5973	-2284.13
0.3936,0.6064	-2279.40
0.3921,0.6079	-2281.10
0.3170,0.6830	-2277.81
0.4126,0.5874	-2278.96
0.3384,0.6616	-2267.21
0.4124,0.5876	-2282.49
0.3688,0.6312	-2281.69
0.3631,0.6369	-2276.81
0.2765,0.7235	-2250.05
0.4101,0.5899	-2283.85
0.3878,0.6122	-2279.22
0.3602,0.6398	-2276.81
0.3015,0.6985	-2273.39
0.3594,0.6406	-2269.87
0.3232,0.6768	-2265.54
0.4445,0.5555	-2289.03
0.3610,0.6390	-2284.80
0.3238,0.6762	-2268.49
0.3273,0.6727	-2269.19
0.3461,0.6539	-2273.19
0.3634,0.6366	-2270.64
0.4004,0.5996	-2272.82
0.3038,0.6962	-2264.93
0.3183,0.6817	-2264.01
0.3332,0.6668	-2272.65
0.3677,0.6323	-2278.47
0.3973,0.6027	-2282.88
0.4007,0.5993	-2279.30
0.3271,0.6729	-2279.29
0.2954,0.7046	-2261.73
0.3295,0.6705	-2272.73
0.3813,0.6187	-2272.30
0.3612,0.6388	-2281.37
0.3231,0.6769	-2276.64
0.2832,0.7168	-2263.10
0.3099,0.6901	-2259.21
0.3212,0.6788	-2267.78
0.3881,0.6119	-2281.96
0.3451,0.6549	-2261.01
0.3668,0.6332	-2272.46
0.2912,0.7088	-2260.96
0.3590,0.6410	-2278.55
0.3832,0.6168	-2278.64
0.3645,0.6355	-2269.59
0.3319,0.6681	-2267.78
0.4013,0.5987	-2289.33
0.2639,0.7361	-2251.24
0.4127,0.5873	-2282.14
0.3719,0.6281	-2281.09
0.3895,0.6105	-2280.62
0.3703,0.6297	-2274.75
0.3108,0.6892	-2270.37
0.2977,0.7023	-2263.40
0.4468,0.5532	-2289.05
0.3396,0.6604	-2277.22
0.3669,0.6331	-2274.10
0.3359,0.6641	-2270.56
0.2827,0.7173	-2256.61
0.2840,0.7160	-2270.46
0.3826,0.6174	-2281.97
0.3520,0.6480	-2268.34
0.3511,0.6489	-2271.98
0.3473,0.6527	-2261.84
0.2530,0.7470	-2232.24
0.3135,0.6865	-2270.26
0.3862,0.6138	-2277.32
0.3028,0.6972	-2268.29
0.3063,0.6937	-2265.69
0.3136,0.6864	-2259.29
0.2570,0.7430	-2255.76
0.3249,0.6751	-2265.56
0.3398,0.6602	-2275.22
0.3119,0.6881	-2251.34
0.2808,0.7192	-2251.01
0.3483,0.6517	-2279.46
0.2454,0.7546	-2236.51
0.3164,0.6836	-2262.45
0.3438,0.6562	-2271.26
0.3173,0.6827	-2259.40
0.2821,0.7179	-2265.04
0.3167,0.6833	-2258.61
0.2679,0.7321	-2262.19
0.2762,0.7238	-2255.83
0.3290,0.6710	-2269.18
0.3141,0.6859	-2260.87
0.2846,0.7154	-2255.66
0.3185,0.6815	-2262.49
0.3692,0.6308	-2282.75
0.2759,0.7241	-2259.70
0.3360,0.6640	-2267.83
0.2844,0.7156	-2271.35
0.2799,0.7201	-2259.52
0.3012,0.6988	-2249.85
0.3670,0.6330	-2279.01
0.2783,0.7217	-2260.54
0.3986,0.6014	-2282.48
0.3012,0.6988	-2249.85
0.3085,0.6915	-2272.90
0.2719,0.7281	-2252.04
0.3982,0.6018	-2277.93
0.2742,0.7258	-2256.87
0.3780,0.6220	-2278.53
0.3264,0.6736	-2271.37
0.3039,0.6961	-2257.47
0.2709,0.7291	-2262.95
0.4060,0.5940	-2279.59
0.2500,0.7500	-2256.30
0.3231,0.6769	-2267.76
0.3357,0.6643	-2271.24
0.2777,0.7223	-2253.88
0.2538,0.7462	-2250.60
0.3917,0.6083	-2272.73
0.2775,0.7225	-2251.01
0.3417,0.6583	-2262.71
0.3028,0.6972	-2263.29
0.2868,0.7132	-2263.83
0.2534,0.7466	-2243.06
0.3922,0.6078	-2280.67
0.2250,0.7750	-2243.23
0.3517,0.6483	-2267.71
0.3201,0.6799	-2277.58
0.2708,0.7292	-2262.96
0.2703,0.7297	-2242.14
0.3979,0.6021	-2280.82
0.2290,0.7710	-2238.07
0.3210,0.6790	-2261.04
0.3291,0.6709	-2254.22
0.2802,0.7198	-2260.45
0.2704,0.7296	-2248.10
0.3923,0.6077	-2278.48
0.2107,0.7893	-2249.98
0.2987,0.7013	-2257.40
0.3571,0.6429	-2267.41
0.3083,0.6917	-2264.03
0.2691,0.7309	-2251.10
0.4047,0.5953	-2286.08
0.2186,0.7814	-2232.35
0.2661,0.7339	-2258.27
0.3585,0.6415	-2278.56
0.3225,0.6775	-2270.74
0.3008,0.6992	-2272.60
0.3516,0.6484	-2268.32
0.2107,0.7893	-2222.25
0.2701,0.7299	-2249.09
0.3079,0.6921	-2254.31
0.2797,0.7203	-2256.69
0.2618,0.7382	-2255.45
0.3791,0.6209	-2283.49
0.2537,0.7463	-2254.93
0.2708,0.7292	-2243.14
0.2985,0.7015	-2280.46
0.2611,0.7389	-2248.21
0.2508,0.7492	-2240.91
0.3948,0.6052	-2281.16
0.2659,0.7341	-2261.33
0.2470,0.7530	-2239.86
0.3251,0.6749	-2266.29
0.2721,0.7279	-2244.16
0.2723,0.7277	-2252.03
0.3939,0.6061	-2279.41
0.2785,0.7215	-2261.48
0.2681,0.7319	-2252.13
0.3179,0.6821	-2263.24
0.2727,0.7273	-2246.14
0.2427,0.7573	-2243.35
0.3616,0.6384	-2281.35
0.2683,0.7317	-2251.12
0.2680,0.7320	-2257.15
0.3532,0.6468	-2282.31
0.2840,0.7160	-2253.81
0.2612,0.7388	-2247.17
0.3429,0.6571	-2272.55
0.2880,0.7120	-2261.97
0.2916,0.7084	-2256.51
0.3660,0.6340	-2278.47
0.2803,0.7197	-2249.12
0.3064,0.6936	-2264.87
0.3621,0.6379	-2276.81
0.2935,0.7065	-2264.42
0.2831,0.7169	-2251.96
0.3332,0.6668	-2253.22
0.2879,0.7121	-2259.25
0.3082,0.6918	-2264.84
0.3144,0.6856	-2263.99
0.2956,0.7044	-2258.26
0.2790,0.7210	-2247.21
0.3548,0.6452	-2273.25
0.2896,0.7104	-2269.98
0.3135,0.6865	-2259.29
0.2982,0.7018	-2262.53
0.2560,0.7440	-2234.49
0.2941,0.7059	-2255.64
0.3355,0.6645	-2271.93
0.3201,0.6799	-2254.98
0.3377,0.6623	-2272.58
0.2854,0.7146	-2263.91
0.2817,0.7183	-2253.83
0.2860,0.7140	-2260.22
0.3268,0.6732	-2259.80
0.2799,0.7201	-2246.28
0.3101,0.6899	-2259.21
0.2900,0.7100	-2254.73
0.2978,0.7022	-2263.40
0.2738,0.7262	-2258.83
0.3507,0.6493	-2273.82
0.2600,0.7400	-2246.15
0.3425,0.6575	-2281.03
0.2934,0.7066	-2261.79
0.3295,0.6705	-2270.60
0.2543,0.7457	-2253.80
0.3393,0.6607	-2273.23
0.3171,0.6829	-2262.46
0.3138,0.6862	-2257.73
0.2934,0.7066	-2253.00
0.3140,0.6860	-2264.77
0.3138,0.6862	-2258.51
0.3458,0.6542	-2270.64
0.3713,0.6287	-2278.47
0.2926,0.7074	-2257.39
0.3012,0.6988	-2254.90
0.2901,0.7099	-2261.89
0.3648,0.6352	-2274.60
0.4130,0.5870	-2282.16
0.3289,0.6711	-2269.90
0.2761,0.7239	-2253.90
0.2570,0.7430	-2247.27
0.2960,0.7040	-2263.45
0.3677,0.6323	-2278.47
0.4262,0.5738	-2289.14
0.3213,0.6787	-2270.77
0.3048,0.6952	-2266.55
0.2383,0.7617	-2241.23
0.2911,0.7089	-2250.28
0.3441,0.6559	-2267.39
0.4373,0.5627	-2284.73
0.3408,0.6592	-2267.94
0.3061,0.6939	-2259.96
0.2915,0.7085	-2272.50
0.2719,0.7281	-2249.08
0.2977,0.7023	-2258.25
0.4489,0.5511	-2284.15
0.2968,0.7032	-2263.43
0.3662,0.6338	-2280.12
0.2783,0.7217	-2241.48
0.3038,0.6962	-2271.56
0.3185,0.6815	-2272.38
0.4351,0.5649	-2287.45
0.3278,0.6722	-2265.60
0.3849,0.6151	-2273.99
0.2841,0.7159	-2249.19
0.2868,0.7132	-2265.65
0.3469,0.6531	-2266.86
0.4233,0.5767	-2286.42
0.3064,0.6936	-2267.32
0.3531,0.6469	-2267.18
0.2762,0.7238	-2248.12
0.2338,0.7662	-2243.81
0.3262,0.6738	-2267.75
0.4219,0.5781	-2284.20
0.3161,0.6839	-2262.45
0.3279,0.6721	-2274.21
0.2629,0.7371	-2252.30
0.2531,0.7469	-2244.15
0.3202,0.6798	-2258.75
0.3574,0.6426	-2266.26
0.2869,0.7131	-2251.99
0.3547,0.6453	-2274.45
0.2966,0.7034	-2258.25
0.2754,0.7246	-2253.92
0.3420,0.6580	-2275.82
0.3837,0.6163	-2270.60
0.3070,0.6930	-2271.37
0.3718,0.6282	-2274.28
0.2663,0.7337	-2245.09
0.3182,0.6818	-2259.43
0.3261,0.6739	-2255.41
0.3002,0.6998	-2249.80
0.3212,0.6788	-2262.54
0.3588,0.6412	-2273.91
0.2842,0.7158	-2260.28
0.3231,0.6769	-2278.12
0.3816,0.6184	-2283.91
0.3520,0.6480	-2266.51
0.3091,0.6909	-2258.39
0.3571,0.6429	-2271.53
0.3004,0.6996	-2257.42
0.3385,0.6615	-2276.59
0.4190,0.5810	-2283.11
0.2896,0.7104	-2260.11
0.3125,0.6875	-2253.74
0.3681,0.6319	-2281.17
0.3319,0.6681	-2271.98
0.3032,0.6968	-2261.61
0.3938,0.6062	-2286.31
0.3019,0.6981	-2274.20
0.3222,0.6778	-2271.49
0.3598,0.6402	-2280.26
0.3202,0.6798	-2272.31
0.3162,0.6838	-2258.59
0.3947,0.6053	-2280.30
0.2653,0.7347	-2241.01
0.3141,0.6859	-2244.47
0.3836,0.6164	-2280.54
0.2676,0.7324	-2254.16
0.3035,0.6965	-2262.44
0.4038,0.5962	-2280.24
0.3141,0.6859	-2268.68
0.2882,0.7118	-2250.20
0.3776,0.6224	-2269.03
0.2804,0.7196	-2241.59
0.2906,0.7094	-2254.73
0.3226,0.6774	-2263.31
0.3695,0.6305	-2273.66
0.2865,0.7135	-2249.25
0.3173,0.6827	-2278.56
0.3312,0.6688	-2269.18
0.3498,0.6502	-2279.40
0.2786,0.7214	-2251.96
0.3690,0.6310	-2275.25
0.3214,0.6786	-2264.04
0.3722,0.6278	-2281.61
0.3244,0.6756	-2271.42
0.3443,0.6557	-2279.64
0.2764,0.7236	-2265.45
0.3892,0.6108	-2284.67
0.3247,0.6753	-2264.83
0.3624,0.6376	-2273.42
0.3332,0.6668	-2268.49
0.3591,0.6409	-2280.86
0.2544,0.7456	-2250.57
0.3679,0.6321	-2273.60
0.3148,0.6852	-2265.55
0.3650,0.6350	-2275.16
0.3202,0.6798	-2270.05
0.3707,0.6293	-2278.47
0.2634,0.7366	-2256.39
0.3848,0.6152	-2278.68
0.3196,0.6804	-2267.04
0.3980,0.6020	-2277.51
0.2984,0.7016	-2269.37
0.3528,0.6472	-2282.94
0.2859,0.7141	-2260.22
0.3579,0.6421	-2270.97
0.3557,0.6443	-2269.11
0.3790,0.6210	-2278.55
0.2973,0.7027	-2262.56
0.3677,0.6323	-2280.64
0.2815,0.7185	-2239.77
0.3379,0.6621	-2267.87
0.3608,0.6392	-2281.38
0.3919,0.6081	-2282.86
0.3803,0.6197	-2269.79
0.3651,0.6349	-2273.50
0.2935,0.7065	-2254.75
0.3088,0.6912	-2260.80
0.3753,0.6247	-2272.38
0.4700,0.5300	-2287.30
0.3854,0.6146	-2284.76
0.3270,0.6730	-2260.54
0.2796,0.7204	-2251.96
0.2522,0.7478	-2238.73
0.3752,0.6248	-2274.42
0.3974,0.6026	-2281.22
0.4672,0.5328	-2289.98
0.3102,0.6898	-2252.82
0.2782,0.7218	-2240.52
0.2315,0.7685	-2231.96
0.4055,0.5945	-2282.62
0.3822,0.6178	-2275.73
0.4070,0.5930	-2284.17
0.2974,0.7026	-2255.67
0.2772,0.7228	-2258.67
0.2363,0.7637	-2250.70
0.3915,0.6085	-2283.74
0.4161,0.5839	-2284.00
0.4598,0.5402	-2290.45
0.3151,0.6849	-2257.00
0.2759,0.7241	-2247.15
0.2166,0.7834	-2233.74
0.3633,0.6367	-2281.30
0.3678,0.6322	-2274.13
0.4070,0.5930	-2283.42
0.3226,0.6774	-2258.87
0.3052,0.6948	-2250.91
0.2519,0.7481	-2247.44
0.3512,0.6488	-2261.55
0.3656,0.6344	-2271.31
0.3640,0.6360	-2281.27
0.2932,0.7068	-2262.67
0.3125,0.6875	-2269.51
0.2882,0.7118	-2249.30
0.3699,0.6301	-2277.93
0.3639,0.6361	-2280.16
0.3621,0.6379	-2262.08
0.3114,0.6886	-2252.89
0.2987,0.7013	-2266.79
0.2919,0.7081	-2247.65
0.3658,0.6342	-2276.27
0.3288,0.6712	-2266.33
0.3330,0.6670	-2278.21
0.3121,0.6879	-2269.53
0.2989,0.7011	-2245.47
0.2616,0.7384	-2243.02
0.3077,0.6923	-2262.41
0.3249,0.6751	-2272.87
0.3973,0.6027	-2279.13
0.3262,0.6738	-2271.38
0.3143,0.6857	-2261.65
0.2839,0.7161	-2261.21
0.3161,0.6839	-2262.45
0.3152,0.6848	-2268.65
0.3758,0.6242	-2268.86
0.3205,0.6795	-2260.27
0.2999,0.7001	-2257.41
0.2872,0.7128	-2254.72
0.2886,0.7114	-2241.19
0.3352,0.6648	-2276.04
0.3344,0.6656	-2267.81
0.3268,0.6732	-2271.37
0.2794,0.7206	-2256.69
0.3109,0.6891	-2267.98
0.3184,0.6816	-2264.77
0.3391,0.6609	-2261.22
0.2790,0.7210	-2249.11
0.3658,0.6342	-2269.67
0.2632,0.7368	-2245.08
0.2723,0.7277	-2263.83
0.3380,0.6620	-2275.94
0.3661,0.6339	-2287.25
0.2822,0.7178	-2263.16
0.4265,0.5735	-2287.36
0.2732,0.7268	-2244.19
0.2582,0.7418	-2254.63
0.3565,0.6435	-2277.42
0.3636,0.6364	-2276.81
0.2815,0.7185	-2258.51
0.4078,0.5922	-2287.16
0.3058,0.6942	-2264.06
0.2832,0.7168	-2237.10
0.3297,0.6703	-2270.60
0.3406,0.6594	-2269.91
0.3405,0.6595	-2268.59
0.3833,0.6167	-2269.61
0.3061,0.6939	-2261.60
0.2847,0.7153	-2269.47
0.3297,0.6703	-2276.27
0.3125,0.6875	-2278.18
0.3254,0.6746	-2254.63
0.3666,0.6334	-2268.62
0.3223,0.6777	-2273.71
0.3146,0.6854	-2271.78
0.3560,0.6440	-2265.57
0.3101,0.6899	-2268.81
0.3178,0.6822	-2260.95
0.3600,0.6400	-2285.43
0.3103,0.6897	-2268.80
0.3166,0.6834	-2274.77
0.3857,0.6143	-2283.36
0.3337,0.6663	-2275.40
0.3582,0.6418	-2270.98
0.3431,0.6569	-2272.55
0.3264,0.6736	-2261.95
0.3052,0.6948	-2258.31
0.3974,0.6026	-2285.80
0.2915,0.7085	-2260.06
0.3677,0.6323	-2287.69
0.3966,0.6034	-2277.00
0.2536,0.7464	-2244.14
0.3218,0.6782	-2264.79
0.3681,0.6319	-2270.90
0.3404,0.6596	-2268.59
0.3521,0.6479	-2272.00
0.4550,0.5450	-2288.83
0.2849,0.7151	-2256.57
0.3114,0.6886	-2248.13
0.3374,0.6626	-2269.21
0.3237,0.6763	-2266.29
0.3336,0.6664	-2278.18
0.4544,0.5456	-2288.26
0.3121,0.6879	-2260.83
0.3517,0.6483	-2273.83
0.2850,0.7150	-2245.54
0.2582,0.7418	-2234.57
0.3169,0.6831	-2263.23
0.4560,0.5440	-2288.68
0.3618,0.6382	-2277.94
0.3601,0.6399	-2272.78
0.3039,0.6961	-2252.49
0.3265,0.6735	-2261.96
0.3008,0.6992	-2257.42
0.4162,0.5838	-2285.70
0.3609,0.6391	-2268.23
0.3688,0.6312	-2268.79
0.3183,0.6817	-2259.44
0.3720,0.6280	-2283.71
0.2944,0.7056	-2255.64
0.3494,0.6506	-2273.82
0.3575,0.6425	-2279.75
0.3653,0.6347	-2277.37
0.3072,0.6928	-2272.98
0.4206,0.5794	-2281.91
0.2622,0.7378	-2252.33
0.3406,0.6594	-2269.25
0.3631,0.6369	-2275.12
0.3756,0.6244	-2279.01
0.3179,0.6821	-2261.71
0.4227,0.5773	-2287.97
0.2492,0.7508	-2249.76
0.3771,0.6229	-2280.03
0.3293,0.6707	-2269.89
0.3723,0.6277	-2279.52
0.3309,0.6691	-2276.22
0.4024,0.5976	-2280.18
0.2516,0.7484	-2244.18
0.3639,0.6361	-2279.04
0.3266,0.6734	-2274.99
0.3809,0.6191	-2281.99
0.3607,0.6393	-2280.24
0.3578,0.6422	-2273.31
0.2848,0.7152	-2253.81
0.3898,0.6102	-2276.14
0.3134,0.6866	-2263.21
0.3751,0.6249	-2283.60
0.3549,0.6451	-2276.24
0.3401,0.6599	-2261.29
0.2933,0.7067	-2267.94
0.3687,0.6313	-2276.85
0.3162,0.6838	-2265.54
0.3540,0.6460	-2275.65
0.3216,0.6784	-2260.31
0.2863,0.7137	-2252.90
0.2198,0.7802	-2243.70
0.3033,0.6967	-2254.96
0.3021,0.6979	-2257.44
0.3841,0.6159	-2276.30
0.2935,0.7065	-2251.24
0.2796,0.7204	-2262.37
0.2480,0.7520	-2230.97
0.2639,0.7361	-2249.19
0.3434,0.6566	-2257.64
0.3200,0.6800	-2268.54
0.2909,0.7091	-2248.50
0.3247,0.6753	-2267.02
0.2957,0.7043	-2270.40
0.2757,0.7243	-2252.95
0.3173,0.6827	-2264.00
0.3203,0.6797	-2254.24
0.3521,0.6479	-2276.27
0.3147,0.6853	-2265.55
0.3021,0.6979	-2258.28
0.3297,0.6703	-2265.63
0.3558,0.6442	-2266.74
0.2805,0.7195	-2254.78
0.3387,0.6613	-2267.89
0.3255,0.6745	-2271.40
0.2713,0.7287	-2258.97
0.3370,0.6630	-2272.59
0.3311,0.6689	-2267.07
0.2419,0.7581	-2241.10
0.3100,0.6900	-2266.41
0.3259,0.6741	-2257.58
0.2713,0.7287	-2252.05
0.3207,0.6793	-2270.03
0.3757,0.6243	-2273.42
0.2424,0.7576	-2231.97
0.3042,0.6958	-2264.09
0.3460,0.6540	-2266.82
0.2610,0.7390	-2244.05
0.3574,0.6426	-2276.23
0.4038,0.5962	-2280.63
0.2400,0.7600	-2257.30
0.3151,0.6849	-2268.65
0.3729,0.6271	-2272.76
0.2873,0.7127	-2267.44
0.3283,0.6717	-2269.19
0.3676,0.6324	-2273.58
0.2750,0.7250	-2251.99
0.2642,0.7358	-2252.25
0.3363,0.6637	-2273.28
0.3089,0.6911	-2267.24
0.3194,0.6806	-2265.53
0.3748,0.6252	-2267.75
0.3101,0.6899	-2263.21
0.3026,0.6974	-2258.28
0.3117,0.6883	-2262.41
0.3065,0.6935	-2266.50
0.3108,0.6892	-2270.37
0.3882,0.6118	-2285.14
0.3126,0.6874	-2267.93
0.3002,0.6998	-2258.26
0.2520,0.7480	-2249.61
0.3435,0.6565	-2272.55
0.2980,0.7020	-2271.11
0.3923,0.6077	-2282.42
0.3330,0.6670	-2271.96
0.2880,0.7120	-2263.77
0.2419,0.7581	-2230.82
0.3441,0.6559	-2271.90
0.2806,0.7194	-2247.25
0.3767,0.6233	-2273.99
0.3457,0.6543	-2278.93
0.3109,0.6891	-2257.63
0.2594,0.7406	-2251.41
0.3587,0.6413	-2273.32
0.2809,0.7191	-2240.68
0.3958,0.6042	-2285.41
0.3864,0.6136	-2274.56
0.2767,0.7233	-2265.42
0.2657,0.7343	-2247.12
0.3809,0.6191	-2271.79
0.2948,0.7052	-2265.24
0.3936,0.6064	-2288.48
0.3742,0.6258	-2281.57
0.3112,0.6888	-2267.18
0.2345,0.7655	-2233.12
0.3534,0.6466	-2276.86
0.2700,0.7300	-2253.07
0.4308,0.5692	-2287.11
0.3825,0.6175	-2276.70
0.3510,0.6490	-2271.37
0.2266,0.7734	-2254.16
0.3490,0.6510	-2278.81
0.2845,0.7155	-2256.58
0.4245,0.5755	-2286.13
0.3924,0.6076	-2283.30
0.3930,0.6070	-2284.60
0.2132,0.7868	-2232.65
0.2932,0.7068	-2254.75
0.2702,0.7298	-2250.09
0.4590,0.5410	-2290.78
0.3639,0.6361	-2278.49
0.3880,0.6120	-2278.77
0.2336,0.7664	-2252.14
0.3099,0.6901	-2260.81
0.2706,0.7294	-2258.02
0.4098,0.5902	-2283.11
0.3664,0.6336	-2269.71
0.3682,0.6318	-2279.01
0.2359,0.7641	-2241.33
0.3161,0.6839	-2263.99
0.2913,0.7087	-2253.85
0.4011,0.5989	-2282.53
0.3728,0.6272	-2276.40
0.3759,0.6241	-2274.45
0.2554,0.7446	-2254.81
0.2757,0.7243	-2265.50
0.2606,0.7394	-2249.27
0.3991,0.6009	-2283.31
0.3408,0.6592	-2271.90
0.3783,0.6217	-2283.01
0.2997,0.7003	-2259.11
0.2589,0.7411	-2243.01
0.2868,0.7132	-2257.46
0.4488,0.5512	-2288.25
0.3228,0.6772	-2276.65
0.3480,0.6520	-2280.10
0.2586,0.7414	-2251.44
0.2870,0.7130	-2261.10
0.2903,0.7097	-2261.88
0.4266,0.5734	-2286.17
0.3240,0.6760	-2265.55
0.3725,0.6275	-2279.00
0.2826,0.7174	-2259.41
0.2703,0.7297	-2248.10
0.2801,0.7199	-2244.40
0.4053,0.5947	-2283.77
0.3210,0.6790	-2266.28
0.4176,0.5824	-2285.38
0.3094,0.6906	-2259.20
0.3169,0.6831	-2267.84
0.3020,0.6980	-2264.97
0.4087,0.5913	-2280.87
0.2892,0.7108	-2257.42
0.4093,0.5907	-2287.13
0.3227,0.6773	-2261.09
0.3168,0.6832	-2265.53
0.3187,0.6813	-2274.65
0.3615,0.6385	-2281.36
0.3140,0.6860	-2268.68
0.3591,0.6409	-2282.02
0.3255,0.6745	-2269.94
0.2955,0.7045	-2250.44
0.3392,0.6608	-2276.57
0.3619,0.6381	-2273.40
0.3432,0.6568	-2271.90
0.3380,0.6620	-2262.49
0.3200,0.6800	-2267.79
0.3272,0.6728	-2259.82
0.3132,0.6868	-2269.49
0.3685,0.6315	-2274.69
0.3723,0.6277	-2272.73
0.3302,0.6698	-2267.06
0.3097,0.6903	-2264.81
0.3686,0.6314	-2279.54
0.3341,0.6659	-2265.74
0.3672,0.6328	-2279.56
0.3687,0.6313	-2271.47
0.3155,0.6845	-2264.77
0.3436,0.6564	-2273.84
0.3482,0.6518	-2275.70
0.3126,0.6874	-2264.78
0.3796,0.6204	-2283.47
0.3900,0.6100	-2284.65
0.2990,0.7010	-2259.96
0.3247,0.6753	-2269.22
0.3677,0.6323	-2273.05
0.3079,0.6921	-2272.94
0.3762,0.6238	-2276.49
0.4563,0.5437	-2287.12
0.2704,0.7296	-2261.01
0.3305,0.6695	-2264.94
0.3490,0.6510	-2272.57
0.3248,0.6752	-2263.36
0.3768,0.6232	-2287.07
0.4200,0.5800	-2286.06
0.3124,0.6876	-2272.67
0.3517,0.6483	-2278.11
0.3616,0.6384	-2274.53
0.3164,0.6836	-2267.85
0.3408,0.6592	-2275.20
0.4258,0.5742	-2284.06
0.3545,0.6455	-2279.24
0.3085,0.6915	-2262.41
0.3665,0.6335	-2272.45
0.2945,0.7055	-2257.39
0.3548,0.6452	-2273.85
0.3794,0.6206	-2276.59
0.3493,0.6507	-2275.69
0.3236,0.6764	-2274.40
0.3530,0.6470	-2271.41
0.2670,0.7330	-2253.17
0.3560,0.6440	-2273.87
0.3530,0.6470	-2267.78
0.3508,0.6492	-2275.05
0.3153,0.6847	-2270.97
0.3665,0.6335	-2273.54
0.2566,0.7434	-2233.45
0.3668,0.6332	-2273.56
0.2953,0.7047	-2266.09
0.3300,0.6700	-2255.72
0.3092,0.6908	-2268.84
0.3960,0.6040	-2280.76
0.2993,0.7007	-2260.81
0.3810,0.6190	-2279.56
0.3582,0.6418	-2279.73
0.3562,0.6438	-2275.05
0.2934,0.7066	-2266.18
0.4100,0.5900	-2278.03
0.3227,0.6773	-2267.76
0.3716,0.6284	-2276.37
0.3392,0.6608	-2276.57
0.3201,0.6799	-2268.54
0.3214,0.6786	-2264.79
0.3762,0.6238	-2278.00
0.3012,0.6988	-2253.22
0.3360,0.6640	-2258.30
0.3558,0.6442	-2266.74
0.3384,0.6616	-2267.88
0.3544,0.6456	-2279.25
0.3432,0.6568	-2256.97
0.3101,0.6899	-2264.81
0.3098,0.6902	-2256.00
0.3369,0.6631	-2268.53
0.3405,0.6595	-2273.88
0.3885,0.6115	-2275.61
0.3661,0.6339	-2276.82
0.3277,0.6723	-2260.57
0.3409,0.6591	-2267.94
0.3506,0.6494	-2271.97
0.3487,0.6513	-2276.94
0.3887,0.6113	-2281.06
0.3463,0.6537	-2269.38
0.3325,0.6675	-2272.66
0.3330,0.6670	-2269.18
0.3937,0.6063	-2284.16
0.3749,0.6251	-2268.78
0.3585,0.6415	-2276.23
0.4028,0.5972	-2284.53
0.3186,0.6814	-2267.05
0.3803,0.6197	-2272.22
0.3836,0.6164	-2286.71
0.3003,0.6997	-2265.87
0.3401,0.6599	-2271.23
0.4386,0.5614	-2287.03
0.2905,0.7095	-2261.87
0.3597,0.6403	-2278.54
0.3688,0.6312	-2269.86
0.3071,0.6929	-2268.92
0.2983,0.7017	-2270.23
0.4212,0.5788	-2288.62
0.3104,0.6896	-2261.61
0.3293,0.6707	-2274.16
0.3513,0.6487	-2276.89
0.2552,0.7448	-2251.60
0.3441,0.6559	-2277.06
0.4690,0.5310	-2288.79
0.2988,0.7012	-2253.99
0.3115,0.6885	-2262.41
0.3709,0.6291	-2275.83
0.2670,0.7330	-2250.14
0.3511,0.6489	-2272.60
0.4965,0.5035	-2291.59
0.2805,0.7195	-2242.53
0.2744,0.7256	-2255.89
0.3729,0.6271	-2281.08
0.2875,0.7125	-2253.82
0.3121,0.6879	-2253.72
0.4825,0.5175	-2291.36
0.2499,0.7501	-2257.41
0.3203,0.6797	-2257.25
0.3883,0.6117	-2284.69
0.2792,0.7208	-2250.06
0.3563,0.6437	-2279.19
0.5195,0.4805	-2291.60
0.2649,0.7351	-2251.21
0.2911,0.7089	-2265.41
0.3763,0.6237	-2284.07
0.3323,0.6677	-2267.78
0.3299,0.6701	-2267.05
0.4390,0.5610	-2287.78
0.2773,0.7227	-2251.97
0.3342,0.6658	-2276.08
0.3491,0.6509	-2272.57
0.3056,0.6944	-2263.24
0.3006,0.6994	-2264.18
0.4125,0.5875	-2288.15
0.2871,0.7129	-2267.46
0.3119,0.6881	-2270.33
0.3158,0.6842	-2267.86
0.3055,0.6945	-2268.99
0.2978,0.7022	-2263.40
0.3617,0.6383	-2272.26
0.2635,0.7365	-2251.25
0.3155,0.6845	-2249.28
0.3242,0.6758	-2267.76
0.2916,0.7084	-2260.95
0.2935,0.7065	-2256.51
0.3395,0.6605	-2270.57
0.2437,0.7563	-2239.91
0.2956,0.7044	-2255.65
0.3431,0.6569	-2267.35
0.2410,0.7590	-2223.92
0.3037,0.6963	-2254.14
0.3589,0.6411	-2276.81
0.2258,0.7742	-2260.41
0.3228,0.6772	-2270.73
0.3646,0.6354	-2276.81
0.2775,0.7225	-2246.22
0.3152,0.6848	-2264.77
0.3735,0.6265	-2273.31
0.2450,0.7550	-2250.02
0.3123,0.6877	-2264.78
0.3713,0.6287	-2276.36
0.3023,0.6977	-2261.62
0.3206,0.6794	-2272.29
0.3430,0.6570	-2282.95
0.2751,0.7249	-2263.62
0.2514,0.7486	-2252.91
0.3796,0.6204	-2272.17
0.3014,0.6986	-2262.47
0.3431,0.6569	-2278.39
0.3495,0.6505	-2277.55
0.2939,0.7061	-2257.39
0.2878,0.7122	-2246.57
0.3381,0.6619	-2268.55
0.3152,0.6848	-2257.01
0.3067,0.6933	-2254.26
0.3388,0.6612	-2279.93
0.3117,0.6883	-2260.04
0.2600,0.7400	-2244.06
0.3536,0.6464	-2287.72
0.3443,0.6557	-2266.11
0.2912,0.7088	-2251.17
0.3602,0.6398	-2271.06
0.3456,0.6544	-2269.36
0.2592,0.7408	-2259.81
0.3333,0.6667	-2270.57
0.3793,0.6207	-2280.53
0.2939,0.7061	-2260.90
0.3538,0.6462	-2275.65
0.3286,0.6714	-2272.76
0.2962,0.7038	-2251.33
0.3552,0.6448	-2279.82
0.3640,0.6360	-2267.88
0.3075,0.6925	-2259.98
0.2867,0.7133	-2256.55
0.3449,0.6551	-2286.67
0.3305,0.6695	-2266.35
0.3424,0.6576	-2262.76
0.3266,0.6734	-2270.64
0.2558,0.7442	-2250.50
0.3605,0.6395	-2269.35
0.3243,0.6757	-2261.15
0.3444,0.6556	-2264.18
0.3633,0.6367	-2274.00
0.3046,0.6954	-2263.26
0.2373,0.7627	-2227.26
0.3634,0.6366	-2270.64
0.3216,0.6784	-2266.28
0.3488,0.6512	-2271.32
0.3886,0.6114	-2283.32
0.3103,0.6897	-2265.60
0.2666,0.7334	-2258.24
0.3423,0.6577	-2275.16
0.3103,0.6897	-2268.00
0.3497,0.6503	-2267.62
0.3730,0.6270	-2276.92
0.2745,0.7255	-2244.22
0.2826,0.7174	-2248.23
0.3296,0.6704	-2279.83
0.3545,0.6455	-2274.45
0.3521,0.6479	-2275.66
0.3991,0.6009	-2282.90
0.2495,0.7505	-2250.84
0.2790,0.7210	-2255.75
0.3298,0.6702	-2264.22
0.3195,0.6805	-2270.06
0.3346,0.6654	-2263.00
0.3915,0.6085	-2286.39
0.3133,0.6867	-2267.92
0.2900,0.7100	-2267.26
0.3478,0.6522	-2267.53
0.3539,0.6461	-2272.64
0.3476,0.6524	-2277.60
0.4208,0.5792	-2283.84
0.2888,0.7112	-2263.73
0.3010,0.6990	-2254.90
0.3144,0.6856	-2263.21
0.3302,0.6698	-2270.59
0.3369,0.6631	-2269.88
0.4155,0.5845	-2278.52
0.3109,0.6891	-2252.86
0.2909,0.7091	-2261.86
0.2654,0.7346	-2236.94
0.3326,0.6674	-2275.45
0.3334,0.6666	-2274.03
0.3850,0.6150	-2281.96
0.3300,0.6700	-2259.98
0.3292,0.6708	-2262.06
0.2685,0.7315	-2248.11
0.3422,0.6578	-2271.24
0.3509,0.6491	-2282.43
0.3921,0.6079	-2280.23
0.2832,0.7168	-2257.53
0.3794,0.6206	-2276.10
0.2961,0.7039	-2261.72
0.3196,0.6804	-2263.26
0.3534,0.6466	-2270.82
0.3991,0.6009	-2284.54
0.2674,0.7326	-2245.09
0.3644,0.6356	-2275.14
0.2898,0.7102	-2260.10
0.3562,0.6438	-2270.91
0.3600,0.6400	-2269.33
0.4199,0.5801	-2289.30
0.2793,0.7207	-2241.53
0.3794,0.6206	-2277.57
0.2870,0.7130	-2247.44
0.3809,0.6191	-2277.61
0.3657,0.6343	-2274.62
0.3557,0.6443	-2276.24
0.2546,0.7454	-2237.67
0.3674,0.6326	-2271.95
0.2729,0.7271	-2253.00
0.3122,0.6878	-2251.36
0.3805,0.6195	-2284.43
0.3431,0.6569	-2271.25
0.3239,0.6761	-2260.40
0.3659,0.6341	-2267.48
0.2877,0.7123	-2242.03
0.3203,0.6797	-2271.55
0.3117,0.6883	-2266.37
0.3556,0.6444	-2274.46
0.3551,0.6449	-2280.42
0.3526,0.6474	-2265.33
0.2879,0.7121	-2252.91
0.3146,0.6854	-2271.00
0.3159,0.6841	-2260.90
0.3700,0.6300	-2270.48
0.3490,0.6510	-2281.92
0.3695,0.6305	-2279.00
0.2680,0.7320	-2255.14
0.3111,0.6889	-2279.10
0.3099,0.6901	-2268.01
0.3820,0.6180	-2283.90
0.3492,0.6508	-2270.08
0.3369,0.6631	-2272.59
0.2915,0.7085	-2265.39
0.3086,0.6914	-2255.15
0.3126,0.6874	-2261.63
0.3335,0.6665	-2267.80
0.3350,0.6650	-2271.25
0.3563,0.6437	-2275.05
0.3157,0.6843	-2251.62
0.3435,0.6565	-2280.97
0.3339,0.6661	-2274.71
0.3602,0.6398	-2267.04
0.3533,0.6467	-2276.26
0.3641,0.6359	-2273.47
0.2968,0.7032	-2265.15
0.3449,0.6551	-2271.91
0.3207,0.6793	-2278.29
0.3370,0.6630	-2275.97
0.3186,0.6814	-2255.65
0.3490,0.6510	-2278.18
0.3002,0.6998	-2262.49
0.3344,0.6656	-2265.74
0.3151,0.6849	-2259.33
0.3669,0.6331	-2280.65
0.3599,0.6401	-2271.63
0.3604,0.6396	-2288.28
0.3375,0.6625	-2271.23
0.3673,0.6327	-2275.75
0.3200,0.6800	-2259.50
0.3815,0.6185	-2288.26
0.3656,0.6344	-2272.96
0.3608,0.6392	-2269.94
0.3443,0.6557	-2266.75
0.3361,0.6639	-2269.88
0.2793,0.7207	-2263.33
0.4467,0.5533	-2291.19
0.3286,0.6714	-2261.32
0.4211,0.5789	-2286.08
0.3072,0.6928	-2255.10
0.3257,0.6743	-2264.11
0.2862,0.7138	-2269.34
0.4481,0.5519	-2288.86
0.3589,0.6411	-2269.85
0.3615,0.6385	-2275.10
0.3330,0.6670	-2273.35
0.3366,0.6634	-2276.67
0.2408,0.7592	-2231.95
0.4501,0.5499	-2289.09
0.3372,0.6628	-2276.64
0.3603,0.6397	-2281.97
0.3575,0.6425	-2287.37
0.3712,0.6288	-2277.42
0.3003,0.6997	-2260.80
0.4279,0.5721	-2288.82
0.3391,0.6609	-2279.24
0.3630,0.6370	-2275.12
0.3020,0.6980	-2262.46
0.3723,0.6277	-2273.78
0.2915,0.7085	-2260.95
0.4116,0.5884	-2282.09
0.3417,0.6583	-2272.55
0.4004,0.5996	-2285.34
0.2815,0.7185	-2252.89
0.3598,0.6402	-2272.77
0.2833,0.7167	-2264.96
0.3696,0.6304	-2280.07
0.3682,0.6318	-2271.99
0.3895,0.6105	-2285.11
0.2601,0.7399	-2246.15
0.3657,0.6343	-2277.37
0.2968,0.7032	-2256.53
0.3362,0.6638	-2280.76
0.3748,0.6252	-2282.59
0.4419,0.5581	-2287.14
0.2978,0.7022	-2259.11
0.4133,0.5867	-2290.58
0.2813,0.7187	-2258.52
0.3423,0.6577	-2266.02
0.3922,0.6078	-2279.35
0.4147,0.5853	-2287.75
0.2917,0.7083	-2263.61
0.3815,0.6185	-2271.84
0.3280,0.6720	-2263.45
0.3401,0.6599	-2263.94
0.4038,0.5962	-2281.41
0.4013,0.5987	-2286.93
0.3016,0.6984	-2262.47
0.3599,0.6401	-2275.08
0.2778,0.7222	-2253.87
0.3489,0.6511	-2262.59
0.4156,0.5844	-2281.60
0.3763,0.6237	-2271.94
0.2986,0.7014	-2255.69
0.3608,0.6392	-2289.96
0.3107,0.6893	-2259.22
0.3402,0.6598	-2269.25
0.4447,0.5553	-2285.92
0.4079,0.5921	-2279.71
0.2884,0.7116	-2260.14
0.3407,0.6593	-2275.20
0.3559,0.6441	-2265.56
0.3421,0.6579	-2266.01
0.3938,0.6062	-2283.72
0.4055,0.5945	-2283.01
0.2844,0.7156	-2265.81
0.3135,0.6865	-2260.86
0.3504,0.6496	-2276.29
0.3350,0.6650	-2283.59
0.3748,0.6252	-2279.01
0.3790,0.6210	-2278.55
0.2915,0.7085	-2260.06
0.3132,0.6868	-2269.49
0.4016,0.5984	-2274.16
0.3433,0.6567	-2271.25
0.4066,0.5934	-2287.57
0.3594,0.6406	-2275.65
0.3093,0.6907	-2267.23
0.3915,0.6085	-2284.18
0.4038,0.5962	-2282.58
0.3718,0.6282	-2284.77
0.4183,0.5817	-2288.69
0.3667,0.6333	-2265.90
0.3243,0.6757	-2258.21
0.4185,0.5815	-2282.43
0.3797,0.6203	-2279.55
0.3540,0.6460	-2275.05
0.4252,0.5748	-2287.95
0.3194,0.6806	-2280.66
0.3367,0.6633	-2266.49
0.3750,0.6250	-2279.01
0.3748,0.6252	-2284.63
0.3711,0.6289	-2283.74
0.3959,0.6041	-2279.91
0.3853,0.6147	-2277.29
0.3261,0.6739	-2264.85
0.3917,0.6083	-2282.42
0.3495,0.6505	-2269.47
0.3089,0.6911	-2262.41
0.3842,0.6158	-2279.13
0.3348,0.6652	-2276.05
0.3164,0.6836	-2266.31
0.3475,0.6525	-2268.78
0.3391,0.6609	-2282.58
0.3371,0.6629	-2280.70
0.3764,0.6236	-2277.50
0.3446,0.6554	-2278.34
0.3372,0.6628	-2262.45
0.3477,0.6523	-2266.90
0.3066,0.6934	-2264.05
0.3340,0.6660	-2261.59
0.3705,0.6295	-2271.05
0.3809,0.6191	-2278.59
0.3206,0.6794	-2266.28
0.3177,0.6823	-2256.36
0.2990,0.7010	-2271.04
0.3726,0.6274	-2279.00
0.3473,0.6527	-2270.04
0.3831,0.6169	-2275.78
0.2994,0.7006	-2259.11
0.3225,0.6775	-2269.99
0.2821,0.7179	-2252.89
0.3857,0.6143	-2277.30
0.3960,0.6040	-2277.81
0.3970,0.6030	-2274.10
0.3197,0.6803	-2271.57
0.3221,0.6779	-2270.74
0.2763,0.7237	-2248.12
0.3696,0.6304	-2273.12
0.3612,0.6388	-2284.79
0.4511,0.5489	-2286.95
0.3307,0.6693	-2284.68
0.3262,0.6738	-2265.58
0.2902,0.7098	-2260.99
0.4122,0.5878	-2280.70
0.3886,0.6114	-2276.52
0.4610,0.5390	-2288.26
0.3539,0.6461	-2275.65
0.3158,0.6842	-2260.13
0.2913,0.7087	-2258.29
0.3930,0.6070	-2284.60
0.3259,0.6741	-2264.12
0.4411,0.5589	-2291.85
0.3080,0.6920	-2265.65
0.3603,0.6397	-2264.75
0.3034,0.6966	-2249.15
0.3758,0.6242	-2278.51
0.3536,0.6464	-2271.43
0.4535,0.5465	-2288.22
0.2906,0.7094	-2262.76
0.3324,0.6676	-2269.18
0.2942,0.7058	-2271.39
0.3723,0.6277	-2281.09
0.3529,0.6471	-2277.47
0.4042,0.5958	-2281.43
0.3114,0.6886	-2273.52
0.3141,0.6859	-2260.09
0.3262,0.6738	-2263.40
0.3712,0.6288	-2280.58
0.3731,0.6269	-2275.37
0.4021,0.5979	-2285.32
0.2999,0.7001	-2259.95
0.3534,0.6466	-2273.84
0.3132,0.6868	-2264.78
0.3483,0.6517	-2282.59
0.3922,0.6078	-2280.67
0.3817,0.6183	-2272.34
0.2907,0.7093	-2248.49
0.3394,0.6606	-2271.23
0.3151,0.6849	-2256.23
0.3509,0.6491	-2274.44
0.3458,0.6542	-2267.45
0.3577,0.6423	-2276.23
0.2712,0.7288	-2256.00
0.3020,0.6980	-2254.08
0.3200,0.6800	-2270.81
0.3953,0.6047	-2280.32
0.3225,0.6775	-2257.38
0.2999,0.7001	-2258.26
0.2887,0.7113	-2250.21
0.3341,0.6659	-2269.18
0.3383,0.6617	-2271.23
0.3412,0.6588	-2279.79
0.3283,0.6717	-2263.46
0.3200,0.6800	-2274.57
0.3039,0.6961	-2258.29
0.3355,0.6645	-2268.51
0.3252,0.6748	-2265.56
0.3375,0.6625	-2275.28
0.2999,0.7001	-2254.87
0.3036,0.6964	-2252.48
0.3095,0.6905	-2266.42
0.3353,0.6647	-2262.35
0.3355,0.6645	-2268.51
0.3164,0.6836	-2270.16
0.3295,0.6705	-2263.50
0.3105,0.6895	-2260.81
0.4181,0.5819	-2283.73
0.3375,0.6625	-2267.86
0.3763,0.6237	-2282.05
0.3697,0.6303	-2276.87
0.3270,0.6730	-2277.13
0.3209,0.6791	-2268.53
0.3557,0.6443	-2278.02
0.3213,0.6787	-2267.78
0.3643,0.6357	-2277.37
0.3687,0.6313	-2271.47
0.3367,0.6633	-2265.14
0.3445,0.6555	-2275.76
0.3834,0.6166	-2284.34
0.3082,0.6918	-2274.54
0.3622,0.6378	-2271.15
0.2775,0.7225	-2252.92
0.3763,0.6237	-2274.47
0.3887,0.6113	-2276.08
0.3963,0.6037	-2282.45
0.3828,0.6172	-2274.33
0.3093,0.6907	-2268.84
0.2486,0.7514	-2227.67
0.3867,0.6133	-2269.97
0.3827,0.6173	-2273.84
0.3466,0.6534	-2271.29
0.3306,0.6694	-2278.35
0.2938,0.7062	-2261.78
0.2540,0.7460	-2247.36
0.3485,0.6515	-2271.94
0.4045,0.5955	-2278.34
0.3206,0.6794	-2265.53
0.3558,0.6442	-2279.80
0.2818,0.7182	-2257.57
0.2884,0.7116	-2257.43
0.3550,0.6450	-2272.06
0.3878,0.6122	-2276.94
0.3445,0.6555	-2270.62
0.3723,0.6277	-2272.73
0.2748,0.7252	-2261.69
0.3385,0.6615	-2261.86
0.3427,0.6573	-2269.94
0.4059,0.5941	-2283.01
0.4197,0.5803	-2283.15
0.3560,0.6440	-2277.42
0.3016,0.6984	-2256.59
0.3084,0.6916	-2269.68
0.3133,0.6867	-2263.99
0.3846,0.6154	-2285.25
0.4032,0.5968	-2288.45
0.3613,0.6387	-2279.08
0.2636,0.7364	-2250.22
0.3448,0.6552	-2271.91
0.3204,0.6796	-2258.01
0.3701,0.6299	-2279.53
0.3993,0.6007	-2286.58
0.3149,0.6851	-2277.98
0.2925,0.7075	-2272.41
0.3109,0.6891	-2267.18
0.2911,0.7089	-2258.29
0.3196,0.6804	-2266.28
0.3415,0.6585	-2273.21
0.2942,0.7058	-2267.01
0.3582,0.6418	-2274.48
0.3171,0.6829	-2261.70
0.2815,0.7185	-2260.39
0.2977,0.7023	-2255.68
0.3491,0.6509	-2273.82
0.3174,0.6826	-2263.23
0.3401,0.6599	-2271.90
0.3159,0.6841	-2267.08
0.2730,0.7270	-2259.85
0.3114,0.6886	-2265.59
0.3989,0.6011	-2280.03
0.2973,0.7027	-2259.97
0.3509,0.6491	-2273.82
0.3029,0.6971	-2255.78
0.2706,0.7294	-2240.17
0.3497,0.6503	-2271.34
0.3954,0.6046	-2276.07
0.2920,0.7080	-2255.63
0.3283,0.6717	-2281.35
0.3230,0.6770	-2257.40
0.2640,0.7360	-2248.16
0.3297,0.6703	-2279.11
0.4286,0.5714	-2288.23
0.2784,0.7216	-2252.91
0.3349,0.6651	-2267.13
0.3252,0.6748	-2261.91
0.2522,0.7478	-2245.25
0.3123,0.6877	-2254.52
0.4151,0.5849	-2281.57
0.3088,0.6912	-2268.85
0.3228,0.6772	-2275.91
0.3085,0.6915	-2260.79
0.2284,0.7716	-2241.76
0.2838,0.7162	-2255.67
0.3810,0.6190	-2278.10
0.3220,0.6780	-2280.43
0.3305,0.6695	-2269.18
0.3116,0.6884	-2260.03
0.2592,0.7408	-2237.76
0.2819,0.7181	-2256.63
0.4294,0.5706	-2285.10
0.3040,0.6960	-2269.06
0.3425,0.6575	-2281.03
0.3500,0.6500	-2277.54
0.2792,0.7208	-2256.70
0.2633,0.7367	-2260.52
0.4180,0.5820	-2286.05
0.2932,0.7068	-2254.75
0.3355,0.6645	-2266.46
0.3443,0.6557	-2271.26
0.2735,0.7265	-2254.94
0.2611,0.7389	-2245.09
0.3813,0.6187	-2280.05
0.2784,0.7216	-2251.01
0.3189,0.6811	-2256.42
0.3310,0.6690	-2260.74
0.2745,0.7255	-2263.66
0.2585,0.7415	-2252.50
0.3905,0.6095	-2272.18
0.3353,0.6647	-2267.14
0.3086,0.6914	-2259.18
0.3758,0.6242	-2278.00
0.2653,0.7347	-2249.16
0.2321,0.7679	-2242.73
0.3587,0.6413	-2277.39
0.3488,0.6512	-2275.69
0.3188,0.6812	-2254.90
0.3309,0.6691	-2272.70
0.2818,0.7182	-2256.63
0.2197,0.7803	-2234.84
0.3158,0.6842	-2263.22
0.3410,0.6590	-2273.21
0.2879,0.7121	-2252.91
0.3608,0.6392	-2272.80
0.2943,0.7057	-2254.76
0.2304,0.7696	-2231.98
0.3431,0.6569	-2272.55
0.3483,0.6517	-2272.57
0.2856,0.7144	-2253.81
0.3822,0.6178	-2285.81
0.2522,0.7478	-2257.21
0.2449,0.7551	-2259.03
0.3296,0.6704	-2257.11
0.3502,0.6498	-2284.94
0.3136,0.6864	-2260.08
0.3777,0.6223	-2279.03
0.2421,0.7579	-2247.94
0.2906,0.7094	-2255.62
0.3552,0.6448	-2274.45
0.3321,0.6679	-2258.00
0.3437,0.6563	-2275.78
0.3886,0.6114	-2279.24
0.2690,0.7310	-2253.10
0.3016,0.6984	-2255.75
0.3352,0.6648	-2268.51
0.3013,0.6987	-2264.16
0.3230,0.6770	-2260.36
0.4180,0.5820	-2279.09
0.2394,0.7606	-2240.03
0.2865,0.7135	-2258.38
0.3232,0.6768	-2267.76
0.3477,0.6523	-2269.42
0.2642,0.7358	-2262.49
0.3695,0.6305	-2272.59
0.2765,0.7235	-2241.39
0.2842,0.7158	-2265.82
0.3285,0.6715	-2261.32
0.3483,0.6517	-2276.32
0.2604,0.7396	-2233.62
0.3325,0.6675	-2262.91
0.2974,0.7026	-2254.81
0.3116,0.6884	-2259.24
0.3130,0.6870	-2262.42
0.3461,0.6539	-2267.46
0.2906,0.7094	-2252.05
0.3990,0.6010	-2281.67
0.2861,0.7139	-2247.41
0.3207,0.6793	-2255.77
0.3155,0.6845	-2263.99
0.2810,0.7190	-2272.62
0.3058,0.6942	-2274.72
0.3738,0.6262	-2276.42
0.2698,0.7302	-2261.04
0.3309,0.6691	-2262.14
0.3166,0.6834	-2268.61
0.3184,0.6816	-2267.05
0.3708,0.6292	-2276.35
0.3167,0.6833	-2270.15
0.2735,0.7265	-2249.08
0.2943,0.7057	-2249.52
0.3092,0.6908	-2260.80
0.3607,0.6393	-2276.81
0.3617,0.6383	-2276.81
0.2889,0.7111	-2260.13
0.2393,0.7607	-2249.29
0.2970,0.7030	-2259.98
0.3618,0.6382	-2278.51
0.3612,0.6388	-2268.25
0.3545,0.6455	-2278.64
0.2718,0.7282	-2254.01
0.2760,0.7240	-2245.23
0.3328,0.6672	-2266.40
0.3248,0.6752	-2259.71
0.3516,0.6484	-2262.20
0.3278,0.6722	-2269.91
0.2932,0.7068	-2257.39
0.3039,0.6961	-2259.95
0.3299,0.6701	-2269.89
0.3305,0.6695	-2266.35
0.3635,0.6365	-2283.53
0.3488,0.6512	-2267.58
0.2587,0.7413	-2246.17
0.2995,0.7005	-2249.76
0.3057,0.6943	-2264.06
0.3007,0.6993	-2259.95
0.4104,0.5896	-2286.03
0.3811,0.6189	-2285.87
0.2612,0.7388	-2240.93
0.2940,0.7060	-2255.64
0.2612,0.7388	-2257.57
0.3272,0.6728	-2267.75
0.3840,0.6160	-2284.33
0.3678,0.6322	-2279.55
0.2810,0.7190	-2259.47
0.2924,0.7076	-2266.23
0.2484,0.7516	-2254.23
0.3146,0.6854	-2263.99
0.3456,0.6544	-2279.58
0.3975,0.6025	-2279.55
0.3065,0.6935	-2264.05
0.3066,0.6934	-2260.78
0.2594,0.7406	-2247.21
0.2911,0.7089	-2250.28
0.3167,0.6833	-2258.61
0.3850,0.6150	-2278.21
0.3269,0.6731	-2271.36
0.2714,0.7286	-2260.93
0.2794,0.7206	-2253.85
0.3337,0.6663	-2267.80
0.3382,0.6618	-2270.56
0.3862,0.6138	-2289.37
0.3210,0.6790	-2269.28
0.2781,0.7219	-2243.38
0.3072,0.6928	-2262.41
0.3623,0.6377	-2274.55
0.3219,0.6781	-2265.54
0.3747,0.6253	-2276.44
0.3066,0.6934	-2258.34
0.2733,0.7267	-2246.15
0.2854,0.7146	-2244.63
0.3367,0.6633	-2272.59
0.3439,0.6561	-2269.96
0.3310,0.6690	-2264.25
0.2926,0.7074	-2256.51
0.2787,0.7213	-2252.91
0.2831,0.7169	-2250.10
0.4211,0.5789	-2286.08
0.3789,0.6211	-2273.11
0.2887,0.7113	-2250.22
0.2882,0.7118	-2249.30
0.2968,0.7032	-2260.84
0.2975,0.7025	-2262.55
0.4061,0.5939	-2284.54
0.3432,0.6568	-2281.63
0.3031,0.6969	-2265.78
0.2978,0.7022	-2266.83
0.3018,0.6982	-2267.50
0.2860,0.7140	-2253.81
0.4218,0.5782	-2284.51
0.3251,0.6749	-2262.64
0.3224,0.6776	-2267.77
0.2700,0.7300	-2265.01
0.3259,0.6741	-2279.38
0.2661,0.7339	-2255.23
0.4061,0.5939	-2286.06
0.3306,0.6694	-2267.77
0.3367,0.6633	-2263.78
0.2725,0.7275	-2264.79
0.3508,0.6492	-2272.59
0.2695,0.7305	-2247.10
0.3731,0.6269	-2280.04
0.3164,0.6836	-2270.16
0.3378,0.6622	-2272.58
0.2588,0.7412	-2257.74
0.3299,0.6701	-2261.38
0.3226,0.6774	-2263.31
0.3902,0.6098	-2283.31
0.3357,0.6643	-2272.61
0.3256,0.6744	-2266.30
0.2680,0.7320	-2261.18
0.3317,0.6683	-2266.37
0.2698,0.7302	-2248.10
0.3984,0.6016	-2284.95
0.3532,0.6468	-2282.31
0.2790,0.7210	-2269.04
0.2665,0.7335	-2253.19
0.3607,0.6393	-2274.52
0.2905,0.7095	-2250.27
0.3956,0.6044	-2281.17
0.3591,0.6409	-2273.91
0.3217,0.6783	-2272.25
0.2429,0.7571	-2239.93
0.3989,0.6011	-2279.62
0.2962,0.7038	-2265.18
0.3813,0.6187	-2277.63
0.3748,0.6252	-2277.98
0.3258,0.6742	-2277.21
0.2100,0.7900	-2230.21
0.3267,0.6733	-2269.92
0.2932,0.7068	-2258.27
0.4039,0.5961	-2274.79
0.3446,0.6554	-2276.41
0.3350,0.6650	-2271.93
0.2052,0.7948	-2237.31
0.3118,0.6882	-2260.04
0.2936,0.7064	-2255.63
0.3640,0.6360	-2270.11
0.3155,0.6845	-2255.47
0.2958,0.7042	-2258.26
0.2421,0.7579	-2231.96
0.3380,0.6620	-2271.23
0.3493,0.6507	-2276.31
0.3741,0.6259	-2277.97
0.3459,0.6541	-2263.63
0.3128,0.6872	-2272.65
0.2483,0.7517	-2234.30
0.3634,0.6366	-2275.69
0.3810,0.6190	-2272.28
0.3798,0.6202	-2281.51
0.3379,0.6621	-2274.60
0.2760,0.7240	-2252.94
0.3110,0.6890	-2260.82
0.3567,0.6433	-2271.51
0.3715,0.6285	-2280.05
0.3740,0.6260	-2282.61
0.3686,0.6314	-2285.46
0.2776,0.7224	-2250.05
0.2757,0.7243	-2250.05
0.3162,0.6838	-2271.71
0.3832,0.6168	-2272.45
0.3716,0.6284	-2279.00
0.3785,0.6215	-2285.98
0.2858,0.7142	-2265.72
0.2757,0.7243	-2247.15
0.3848,0.6152	-2273.98
0.4168,0.5832	-2274.62
0.4282,0.5718	-2285.92
0.4503,0.5497	-2288.30
0.2698,0.7302	-2246.11
0.2439,0.7561	-2244.43
0.3631,0.6369	-2275.12
0.4286,0.5714	-2281.91
0.4088,0.5912	-2283.45
0.3540,0.6460	-2273.84
0.2782,0.7218	-2233.84
0.2437,0.7563	-2231.99
0.3452,0.6548	-2273.19
0.4146,0.5854	-2287.06
0.4323,0.5677	-2283.05
0.3434,0.6566	-2264.12
0.2923,0.7077	-2254.74
0.2854,0.7146	-2256.56
0.3840,0.6160	-2281.96
0.4043,0.5957	-2290.73
0.3623,0.6377	-2276.24
0.3253,0.6747	-2273.59
0.3215,0.6785	-2263.29
0.3179,0.6821	-2264.77
0.4234,0.5766	-2283.33
0.4148,0.5852	-2284.31
0.4011,0.5989	-2280.92
0.3194,0.6806	-2266.29
0.3199,0.6801	-2272.32
0.3000,0.7000	-2256.56
0.3607,0.6393	-2281.39
0.4227,0.5773	-2286.73
0.4023,0.5977	-2290.07
0.2892,0.7108	-2269.12
0.3101,0.6899	-2263.21
0.3001,0.6999	-2267.58
0.3516,0.6484	-2273.21
0.3732,0.6268	-2273.30
0.4127,0.5873	-2281.09
0.3086,0.6914	-2259.18
0.3094,0.6906	-2248.76
0.2615,0.7385	-2251.32
0.3154,0.6846	-2252.37
0.4132,0.5868	-2287.43
0.3563,0.6437	-2276.23
0.2858,0.7142	-2262.97
0.3178,0.6822	-2265.53
0.2463,0.7537	-2254.41
0.3233,0.6767	-2269.24
0.3892,0.6108	-2285.12
0.3712,0.6288	-2283.74
0.3142,0.6858	-2270.24
0.2925,0.7075	-2260.93
0.2912,0.7088	-2266.30
0.2794,0.7206	-2252.90
0.3706,0.6294	-2283.76
0.3341,0.6659	-2274.70
0.3313,0.6687	-2270.58
0.2597,0.7403	-2249.30
0.3044,0.6956	-2258.30
0.3112,0.6888	-2267.18
0.3529,0.6471	-2273.83
0.3372,0.6628	-2265.15
0.3069,0.6931	-2273.01
0.2756,0.7244	-2264.55
0.2750,0.7250	-2246.17
0.2729,0.7271	-2256.92
0.4091,0.5909	-2284.56
0.3536,0.6464	-2272.03
0.2807,0.7193	-2266.07
0.2550,0.7450	-2238.75
0.3125,0.6875	-2258.48
0.3131,0.6869	-2272.63
0.3577,0.6423	-2272.13
0.3416,0.6584	-2261.40
0.2655,0.7345	-2268.49
0.2993,0.7007	-2281.22
0.3251,0.6749	-2268.48
0.3362,0.6638	-2262.39
0.3639,0.6361	-2274.58
0.3528,0.6472	-2272.62
0.2770,0.7230	-2260.60
0.3097,0.6903	-2254.39
0.3170,0.6830	-2273.21
0.3963,0.6037	-2277.82
0.3181,0.6819	-2271.63
0.3567,0.6433	-2270.34
0.2750,0.7250	-2249.08
0.2886,0.7114	-2261.94
0.3151,0.6849	-2267.10
0.3563,0.6437	-2273.28
0.3765,0.6235	-2285.07
0.3669,0.6331	-2268.10
0.2980,0.7020	-2263.39
0.2966,0.7034	-2269.48
0.3234,0.6766	-2260.38
0.3505,0.6495	-2275.67
0.3392,0.6608	-2263.23
0.3900,0.6100	-2275.71
0.3036,0.6964	-2264.93
0.3123,0.6877	-2270.31
0.3081,0.6919	-2268.88
0.3429,0.6571	-2264.74
0.3467,0.6533	-2282.69
0.3561,0.6439	-2279.20
0.3086,0.6914	-2264.83
0.3597,0.6403	-2275.08
0.3385,0.6615	-2264.53
0.3682,0.6318	-2273.61
0.3857,0.6143	-2278.24
0.3748,0.6252	-2279.01
0.3126,0.6874	-2268.72
0.3567,0.6433	-2270.33
0.3363,0.6637	-2267.16
0.3606,0.6394	-2276.23
0.3348,0.6652	-2270.56
0.4001,0.5999	-2281.70
0.3676,0.6324	-2276.30
0.3218,0.6782	-2264.04
0.3525,0.6475	-2266.54
0.3736,0.6264	-2279.00
0.3660,0.6340	-2273.53
0.3939,0.6061	-2281.14
0.3913,0.6087	-2282.42
0.3056,0.6944	-2255.04
0.3071,0.6929	-2251.84
0.3275,0.6725	-2257.68
0.3388,0.6612	-2271.90
0.3384,0.6616	-2271.23
0.4195,0.5805	-2282.16
0.2825,0.7175	-2267.81
0.3349,0.6651	-2269.87
0.3585,0.6415	-2272.16
0.3446,0.6554	-2266.76
0.3327,0.6673	-2277.53
0.3457,0.6543	-2277.02
0.2687,0.7313	-2247.10
0.3839,0.6161	-2278.65
0.3415,0.6585	-2262.05
0.3381,0.6619	-2273.92
0.3268,0.6732	-2268.47
0.3494,0.6506	-2269.47
0.2822,0.7178	-2250.09
0.3693,0.6307	-2275.79
0.3387,0.6613	-2271.90
0.3616,0.6384	-2269.98
0.3247,0.6753	-2272.15
0.3425,0.6575	-2271.25
0.2820,0.7180	-2269.72
0.3404,0.6596	-2271.24
0.3746,0.6254	-2269.27
0.3854,0.6146	-2276.36
0.3078,0.6922	-2256.74
0.2982,0.7018	-2260.82
0.3427,0.6573	-2271.90
0.2926,0.7074	-2250.33
0.3785,0.6215	-2281.02
0.3451,0.6549	-2270.63
0.3041,0.6959	-2267.40
0.3370,0.6630	-2267.85
0.3815,0.6185	-2282.46
0.2894,0.7106	-2248.44
0.3671,0.6329	-2281.19
0.3265,0.6735	-2270.65
0.3220,0.6780	-2275.22
0.3579,0.6421	-2268.05
0.3709,0.6291	-2278.47
0.2719,0.7281	-2239.23
0.3558,0.6442	-2272.68
0.3346,0.6654	-2268.50
0.3513,0.6487	-2276.28
0.3730,0.6270	-2284.71
0.3212,0.6788	-2276.76
0.2852,0.7148	-2256.57
0.3742,0.6258	-2270.26
0.3579,0.6421	-2270.97
0.3248,0.6752	-2268.49
0.3270,0.6730	-2278.58
0.3259,0.6741	-2264.12
0.2247,0.7753	-2229.64
0.3850,0.6150	-2284.77
0.3664,0.6336	-2273.54
0.3277,0.6723	-2269.19
0.3115,0.6885	-2255.27
0.3402,0.6598	-2275.87
0.2355,0.7645	-2236.64
0.3516,0.6484	-2271.38
0.3874,0.6126	-2277.38
0.3213,0.6787	-2265.53
0.3278,0.6722	-2267.04
0.3642,0.6358	-2277.37
0.2574,0.7426	-2241.96
0.3181,0.6819	-2260.19
0.3994,0.6006	-2283.31
0.2923,0.7077	-2258.28
0.3556,0.6444	-2276.83
0.3579,0.6421	-2280.32
0.2778,0.7222	-2256.74
0.2824,0.7176	-2248.23
0.3963,0.6037	-2277.83
0.3082,0.6918	-2263.22
0.3230,0.6770	-2251.48
0.3499,0.6501	-2279.40
0.2988,0.7012	-2261.67
0.3063,0.6937	-2250.16
0.4158,0.5842	-2283.99
0.3159,0.6841	-2275.59
0.2996,0.7004	-2256.56
0.3052,0.6948	-2264.89
0.3154,0.6846	-2272.52
0.2608,0.7392	-2245.10
0.4023,0.5977	-2278.59
0.3401,0.6599	-2257.98
0.3204,0.6796	-2267.79
0.3098,0.6902	-2253.60
0.3292,0.6708	-2267.05
0.2495,0.7505	-2232.12
0.4005,0.5995	-2279.29
0.3578,0.6422	-2271.55
0.2752,0.7248	-2254.89
0.2856,0.7144	-2248.31
0.3471,0.6529	-2278.88
0.2747,0.7253	-2262.67
0.3917,0.6083	-2276.70
0.3373,0.6627	-2278.66
0.3226,0.6774	-2269.25
0.3191,0.6809	-2258.71
0.3921,0.6079	-2268.82
0.2589,0.7411	-2250.37
0.3739,0.6261	-2283.12
0.3252,0.6748	-2258.99
0.2916,0.7084	-2269.83
0.3219,0.6781	-2272.99
0.3452,0.6548	-2262.95
0.3097,0.6903	-2265.61
0.3542,0.6458	-2278.05
0.3719,0.6281	-2276.90
0.3122,0.6878	-2260.05
0.3164,0.6836	-2262.45
0.3734,0.6266	-2280.55
0.3038,0.6962	-2254.15
0.3745,0.6255	-2267.21
0.4387,0.5613	-2289.01
0.2919,0.7081	-2262.72
0.2845,0.7155	-2252.89
0.3346,0.6654	-2268.50
0.3224,0.6776	-2263.31
0.3244,0.6756	-2266.29
0.4442,0.5558	-2290.82
0.3325,0.6675	-2273.36
0.3067,0.6933	-2264.05
0.3573,0.6427	-2281.52
0.3061,0.6939	-2251.78
0.3242,0.6758	-2277.31
0.4100,0.5900	-2280.93
0.3091,0.6909	-2270.45
0.2946,0.7054	-2251.28
0.3075,0.6925	-2262.41
0.3174,0.6826	-2257.11
0.3734,0.6266	-2266.06
0.3528,0.6472	-2273.23
0.3180,0.6820	-2267.06
0.3047,0.6953	-2244.28
0.3343,0.6657	-2265.74
0.3095,0.6905	-2267.22
0.3525,0.6475	-2273.22
0.3416,0.6584	-2270.58
0.3411,0.6589	-2281.77
0.2956,0.7044	-2259.99
0.3041,0.6959	-2250.85
0.2551,0.7449	-2244.11
0.3337,0.6663	-2274.71
0.3357,0.6643	-2257.60
0.3191,0.6809	-2266.29
0.2835,0.7165	-2254.74
0.2710,0.7290	-2245.13
0.2602,0.7398	-2245.10
0.3414,0.6586	-2273.21
0.3496,0.6504	-2267.61
0.3442,0.6558	-2275.13
0.3114,0.6886	-2257.65
0.2730,0.7270	-2266.71
0.2703,0.7297	-2253.06
0.3538,0.6462	-2278.06
0.3506,0.6494	-2275.06
0.3587,0.6413	-2277.39
0.3038,0.6962	-2270.73
0.2870,0.7130	-2269.28
0.2424,0.7576	-2237.66
0.3398,0.6602	-2273.89
0.3318,0.6682	-2265.68
0.3725,0.6275	-2270.65
0.3123,0.6877	-2256.10
0.2721,0.7279	-2254.99
0.2677,0.7323	-2239.06
0.3444,0.6556	-2269.97
0.3565,0.6435	-2273.28
0.4270,0.5730	-2283.83
0.2890,0.7110	-2258.32
0.2544,0.7456	-2235.52
0.3113,0.6887	-2259.24
0.3459,0.6541	-2280.20
0.3354,0.6646	-2269.19
0.3880,0.6120	-2276.95
0.3261,0.6739	-2264.12
0.2437,0.7563	-2226.32
0.2991,0.7009	-2255.70
0.2961,0.7039	-2247.00
0.3327,0.6673	-2272.66
0.4206,0.5794	-2285.75
0.3273,0.6727	-2262.71
0.2761,0.7239	-2250.05
0.2887,0.7113	-2262.84
0.3460,0.6540	-2277.01
0.3085,0.6915	-2259.18
0.4202,0.5798	-2285.10
0.3190,0.6810	-2260.98
0.2959,0.7041	-2259.99
0.2835,0.7165	-2243.62
0.3503,0.6497	-2271.97
0.2893,0.7107	-2271.80
0.4400,0.5600	-2286.60
0.2984,0.7016	-2251.41
0.3160,0.6840	-2265.54
0.3082,0.6918	-2262.41
0.3902,0.6098	-2283.31
0.2639,0.7361	-2247.13
0.4232,0.5768	-2283.01
0.2969,0.7031	-2267.73
0.3118,0.6882	-2273.50
0.3041,0.6959	-2252.50
0.3727,0.6273	-2278.48
0.2513,0.7487	-2243.09
0.4122,0.5878	-2283.54
0.2659,0.7341	-2247.12
0.3149,0.6851	-2253.89
0.2872,0.7128	-2247.45
0.3932,0.6068	-2281.99
0.2336,0.7664	-2236.69
0.4055,0.5945	-2283.39
0.2278,0.7722	-2240.57
0.2999,0.7001	-2268.43
0.2964,0.7036	-2251.34
0.3999,0.6001	-2278.85
0.2469,0.7531	-2236.51
0.4518,0.5482	-2289.90
0.2686,0.7314	-2247.11
0.2773,0.7227	-2247.18
0.2927,0.7073	-2264.45
0.3885,0.6115	-2285.59
0.2215,0.7785	-2224.68
0.4148,0.5852	-2286.72
0.3010,0.6990	-2254.05
0.3185,0.6815	-2269.33
0.3056,0.6944	-2264.06
0.4028,0.5972	-2275.86
0.2101,0.7899	-2228.88
0.3958,0.6042	-2282.02
0.3007,0.6993	-2265.02
0.3343,0.6657	-2271.25
0.3079,0.6921	-2270.51
0.4015,0.5985	-2281.34
0.2478,0.7522	-2250.95
0.3673,0.6327	-2281.73
0.2719,0.7281	-2261.89
0.3921,0.6079	-2277.60
0.3271,0.6729	-2266.31
0.3746,0.6254	-2285.15
0.2288,0.7712	-2242.95
0.3105,0.6895	-2264.80
0.2934,0.7066	-2272.33
0.3915,0.6085	-2281.53
0.2942,0.7058	-2253.89
0.4073,0.5927	-2280.79
0.2400,0.7600	-2241.16
0.3213,0.6787	-2275.26
0.2692,0.7308	-2255.09
0.3328,0.6672	-2258.74
0.3164,0.6836	-2262.45
0.3913,0.6087	-2281.09
0.2669,0.7331	-2246.10
0.3505,0.6495	-2268.89
0.3125,0.6875	-2264.78
0.3597,0.6403	-2272.19
0.2841,0.7159	-2249.19
0.3764,0.6236	-2274.98
0.2692,0.7308	-2261.09
0.3484,0.6516	-2266.30
0.2669,0.7331	-2243.07
0.2866,0.7134	-2241.04
0.3327,0.6673	-2270.57
0.4073,0.5927	-2281.55
0.2706,0.7294	-2254.05
0.3563,0.6437	-2283.33
0.2751,0.7249	-2261.68
0.3149,0.6851	-2273.32
0.3353,0.6647	-2268.51
0.3822,0.6178	-2278.13
0.3544,0.6456	-2272.65
0.3077,0.6923	-2258.36
0.2204,0.7796	-2229.74
0.2736,0.7264	-2251.03
0.3051,0.6949	-2257.49
0.3763,0.6237	-2278.51
0.3988,0.6012	-2284.13
0.3320,0.6680	-2269.88
0.2309,0.7691	-2222.35
0.3135,0.6865	-2258.50
0.3026,0.6974	-2259.95
0.3606,0.6394	-2277.38
0.3968,0.6032	-2280.37
0.3531,0.6469	-2273.84
0.2853,0.7147	-2240.03
0.3502,0.6498	-2267.02
0.3024,0.6976	-2270.81
0.3167,0.6833	-2271.69
0.4246,0.5754	-2286.74
0.3936,0.6064	-2276.38
0.3189,0.6811	-2257.94
0.3289,0.6711	-2259.91
0.3289,0.6711	-2265.62
0.3499,0.6501	-2273.82
0.4046,0.5954	-2277.58
0.3724,0.6276	-2280.04
0.3433,0.6567	-2268.01
0.3066,0.6934	-2270.58
0.3052,0.6948	-2266.54
0.3773,0.6227	-2274.52
0.3882,0.6118	-2278.32
0.3714,0.6286	-2280.05
0.3001,0.6999	-2256.57
0.2661,0.7339	-2249.14
0.3004,0.6996	-2259.11
0.3935,0.6065	-2283.73
0.3894,0.6106	-2276.57
0.3805,0.6195	-2275.66
0.2445,0.7555	-2247.80
0.2423,0.7577	-2231.96
0.2528,0.7472	-2251.73
0.3840,0.6160	-2271.56
0.3217,0.6783	-2256.59
0.3384,0.6616	-2272.57
0.2730,0.7270	-2245.16
0.2589,0.7411	-2237.75
0.2596,0.7404	-2252.45
0.3829,0.6171	-2283.88
0.3104,0.6896	-2260.01
0.3629,0.6371	-2278.50
0.3366,0.6634	-2267.17
0.2366,0.7634	-2267.08
0.2758,0.7242	-2246.19
0.3798,0.6202	-2273.17
0.3283,0.6717	-2258.45
0.3490,0.6510	-2261.35
0.3354,0.6646	-2271.93
0.2289,0.7711	-2247.80
0.2485,0.7515	-2236.52
0.3833,0.6167	-2273.41
0.3114,0.6886	-2260.82
0.3717,0.6283	-2275.32
0.3628,0.6372	-2271.18
0.2225,0.7775	-2223.43
0.2390,0.7610	-2224.99
0.4105,0.5895	-2280.24
0.3356,0.6644	-2262.37
0.3625,0.6375	-2277.37
0.3581,0.6419	-2277.40
0.2215,0.7785	-2222.17
0.2296,0.7704	-2231.99
0.3939,0.6061	-2287.60
0.3726,0.6274	-2269.62
0.3515,0.6485	-2275.66
0.3128,0.6872	-2260.84
0.2482,0.7518	-2252.03
0.2377,0.7623	-2237.76
0.3602,0.6398	-2269.91
0.3947,0.6053	-2280.73
0.3307,0.6693	-2261.42
0.2976,0.7024	-2270.27
0.2536,0.7464	-2261.41
0.2317,0.7683	-2234.36
0.4076,0.5924	-2281.19
0.4089,0.5911	-2282.72
0.3021,0.6979	-2262.46
0.3069,0.6931	-2263.23
0.2586,0.7414	-2246.17
0.2804,0.7196	-2258.55
0.3848,0.6152	-2273.52
0.3851,0.6149	-2278.22
0.3370,0.6630	-2278.68
0.3789,0.6211	-2279.04
0.2641,0.7359	-2249.18
0.2971,0.7029	-2255.67
0.3729,0.6271	-2280.56
0.3860,0.6140	-2274.53
0.3096,0.6904	-2264.81
0.3777,0.6223	-2274.04
0.2470,0.7530	-2239.86
0.2905,0.7095	-2249.37
0.3709,0.6291	-2279.00
0.4287,0.5713	-2290.53
0.2694,0.7306	-2264.06
0.3504,0.6496	-2275.06
0.2465,0.7535	-2247.68
0.2848,0.7152	-2256.57
0.3446,0.6554	-2268.05
0.3774,0.6226	-2284.03
0.2814,0.7186	-2246.33
0.3472,0.6528	-2270.03
0.2030,0.7970	-2226.60
0.3003,0.6997	-2253.19
0.3295,0.6705	-2264.92
0.4157,0.5843	-2283.65
0.2945,0.7055	-2260.88
0.3397,0.6603	-2264.59
0.2500,0.7500	-2242.02
0.3072,0.6928	-2251.84
0.3196,0.6804	-2259.49
0.4401,0.5599	-2288.28
0.3152,0.6848	-2280.28
0.2973,0.7027	-2260.83
0.2511,0.7489	-2249.65
0.3194,0.6806	-2260.99
0.3406,0.6594	-2275.20
0.4307,0.5693	-2285.99
0.3311,0.6689	-2273.40
0.2842,0.7158	-2264.90
0.2842,0.7158	-2245.50
0.3669,0.6331	-2280.11
0.3019,0.6981	-2269.17
0.4295,0.5705	-2283.97
0.3110,0.6890	-2267.98
0.2566,0.7434	-2237.70
0.3043,0.6957	-2257.47
0.3767,0.6233	-2278.01
0.2670,0.7330	-2251.15
0.4909,0.5091	-2290.86
0.2775,0.7225	-2263.45
0.2666,0.7334	-2260.27
0.3730,0.6270	-2271.73
0.4117,0.5883	-2279.25
0.2715,0.7285	-2260.93
0.4812,0.5188	-2291.81
0.2801,0.7199	-2232.13
0.2650,0.7350	-2261.40
0.3277,0.6723	-2267.03
0.4175,0.5825	-2291.71
0.3243,0.6757	-2264.82
0.4547,0.5453	-2288.09
0.2496,0.7504	-2248.63
0.3049,0.6951	-2264.90
0.3146,0.6854	-2251.54
0.4227,0.5773	-2286.73
0.3323,0.6677	-2259.41
0.4278,0.5722	-2280.96
0.2393,0.7607	-2248.13
0.3056,0.6944	-2272.27
0.2617,0.7383	-2254.42
0.3678,0.6322	-2280.09
0.3473,0.6527	-2273.82
0.3852,0.6148	-2286.63
0.2687,0.7313	-2252.11
0.3047,0.6953	-2267.38
0.3021,0.6979	-2270.00
0.4203,0.5797	-2279.32
0.3176,0.6824	-2263.24
0.3633,0.6367	-2279.05
0.2808,0.7192	-2270.76
0.3006,0.6994	-2256.57
0.3462,0.6538	-2268.10
0.3747,0.6253	-2279.52
0.2870,0.7130	-2262.91
0.3688,0.6312	-2276.85
0.2921,0.7079	-2264.48
0.3028,0.6972	-2269.12
0.3149,0.6851	-2278.76
0.3912,0.6088	-2268.26
0.2876,0.7124	-2253.82
0.3437,0.6563	-2267.37
0.3261,0.6739	-2269.93
0.3199,0.6801	-2267.04
0.2893,0.7107	-2258.32
0.4028,0.5972	-2285.32
0.2995,0.7005	-2266.75
0.3471,0.6529	-2278.88
0.2978,0.7022	-2269.40
0.3457,0.6543	-2268.09
0.3233,0.6767	-2267.02
0.3900,0.6100	-2284.65
0.2828,0.7172	-2251.96
0.3013,0.6987	-2260.79
0.3229,0.6771	-2260.36
0.3025,0.6975	-2260.78
0.3203,0.6797	-2267.03
0.3426,0.6574	-2276.46
0.2930,0.7070	-2267.96
0.3282,0.6718	-2274.20
0.3398,0.6602	-2267.25
0.3415,0.6585	-2267.96
0.2804,0.7196	-2263.26
0.3139,0.6861	-2266.34
0.2784,0.7216	-2254.82
0.3212,0.6788	-2275.26
0.3105,0.6895	-2272.78
0.3399,0.6601	-2267.92
0.3117,0.6883	-2261.62
0.3379,0.6621	-2276.62
0.3012,0.6988	-2270.89
0.3463,0.6537	-2268.11
0.3326,0.6674	-2271.96
0.3148,0.6852	-2271.77
0.3042,0.6958	-2249.20
0.3455,0.6545	-2275.11
0.3116,0.6884	-2264.00
0.3431,0.6569	-2269.95
0.3613,0.6387	-2276.81
0.2964,0.7036	-2247.88
0.3085,0.6915	-2253.53
0.3244,0.6756	-2264.09
0.3229,0.6771	-2262.58
0.3459,0.6541	-2271.91
0.4001,0.5999	-2279.67
0.3002,0.6998	-2255.72
0.2833,0.7167	-2263.10
0.3759,0.6241	-2269.38
0.2680,0.7320	-2249.12
0.3886,0.6114	-2277.43
0.4007,0.5993	-2281.71
0.3016,0.6984	-2264.99
0.2671,0.7329	-2255.18
0.3873,0.6127	-2275.08
0.2862,0.7138	-2252.90
0.3793,0.6207	-2282.00
0.3933,0.6067	-2280.69
0.3180,0.6820	-2260.95
0.2938,0.7062	-2251.25
0.3881,0.6119	-2281.05
0.3038,0.6962	-2258.29
0.3471,0.6529	-2275.72
0.4056,0.5944	-2283.77
0.3116,0.6884	-2267.17
0.3318,0.6682	-2264.28
0.4153,0.5847	-2285.35
0.2953,0.7047	-2259.13
0.3322,0.6678	-2276.16
0.3961,0.6039	-2277.39
0.2993,0.7007	-2259.11
0.3887,0.6113	-2276.53
0.3946,0.6054	-2276.44
0.2902,0.7098	-2256.52
0.3293,0.6707	-2274.16
0.3789,0.6211	-2281.02
0.2974,0.7026	-2260.83
0.3880,0.6120	-2282.87
0.3691,0.6309	-2285.97
0.3387,0.6613	-2259.86
0.3868,0.6132	-2280.58
0.3642,0.6358	-2281.83
0.2876,0.7124	-2254.72
0.4206,0.5794	-2285.11
