#isoforms=['ENSG00000186575.SE.4.A.up_ENSG00000186575.SE.4.A.SE1_ENSG00000186575.SE.4.A.dn','ENSG00000186575.SE.4.B.up_ENSG00000186575.SE.4.B.dn']	exon_lens=('ENSG00000186575.SE.4.A.up',128),('ENSG00000186575.SE.4.A.SE1',163),('ENSG00000186575.SE.4.A.dn',3847),('ENSG00000186575.SE.4.B.up',128),('ENSG00000186575.SE.4.B.dn',194)	iters=5000	burn_in=500	lag=10	percent_accept=95.29	proposal_type=drift	counts=(0,0):674,(0,1):1,(1,0):3451,(1,1):123	assigned_counts=0:3573,1:2	chrom=chr22	strand=+	mRNA_starts=29678196,29678196	mRNA_ends=29698598,29694945
sampled_psi	log_score
0.9907,0.0093	-29705.55
0.9129,0.0871	-29746.03
0.9616,0.0384	-29718.63
0.9805,0.0195	-29700.69
0.9385,0.0615	-29727.86
0.9577,0.0423	-29709.30
0.9909,0.0091	-29691.52
0.9090,0.0910	-29739.17
0.9565,0.0435	-29706.31
0.9797,0.0203	-29712.36
0.9474,0.0526	-29721.95
0.9602,0.0398	-29705.90
0.9889,0.0111	-29700.70
0.9145,0.0855	-29729.42
0.9407,0.0593	-29730.57
0.9788,0.0212	-29700.78
0.9481,0.0519	-29727.73
0.9598,0.0402	-29718.63
0.9898,0.0102	-29714.52
0.9447,0.0553	-29716.38
0.9478,0.0522	-29727.73
0.9813,0.0187	-29692.74
0.9589,0.0411	-29709.19
0.9554,0.0446	-29715.65
0.9919,0.0081	-29696.25
0.9544,0.0456	-29721.78
0.9381,0.0619	-29727.88
0.9769,0.0231	-29700.91
0.9636,0.0364	-29702.28
0.9548,0.0452	-29718.72
0.9904,0.0096	-29696.21
0.9598,0.0402	-29702.78
0.9457,0.0543	-29736.30
0.9826,0.0174	-29696.58
0.9647,0.0353	-29705.44
0.9651,0.0349	-29712.05
0.9891,0.0109	-29700.72
0.9585,0.0415	-29718.65
0.9597,0.0403	-29705.96
0.9849,0.0151	-29696.40
0.9591,0.0409	-29709.17
0.9607,0.0393	-29718.63
0.9877,0.0123	-29700.63
0.9607,0.0393	-29715.44
0.9598,0.0402	-29705.95
0.9831,0.0169	-29708.73
0.9577,0.0423	-29712.42
0.9646,0.0354	-29705.45
0.9843,0.0157	-29700.58
0.9621,0.0379	-29705.70
0.9599,0.0401	-29712.28
0.9817,0.0183	-29708.60
0.9494,0.0506	-29724.81
0.9633,0.0367	-29721.92
0.9821,0.0179	-29708.64
0.9521,0.0479	-29709.85
0.9569,0.0431	-29709.37
0.9840,0.0160	-29700.58
0.9430,0.0570	-29713.72
0.9700,0.0300	-29708.48
0.9798,0.0202	-29704.61
0.9608,0.0392	-29728.23
0.9542,0.0458	-29712.67
0.9831,0.0169	-29696.53
0.9443,0.0557	-29716.42
0.9647,0.0353	-29698.82
0.9793,0.0207	-29704.61
0.9554,0.0446	-29712.58
0.9597,0.0403	-29705.95
0.9830,0.0170	-29696.55
0.9347,0.0653	-29717.37
0.9606,0.0394	-29718.63
0.9804,0.0196	-29712.43
0.9601,0.0399	-29715.45
0.9644,0.0356	-29702.17
0.9827,0.0173	-29696.57
0.9406,0.0594	-29716.75
0.9567,0.0433	-29718.68
0.9750,0.0250	-29701.05
0.9585,0.0415	-29715.51
0.9555,0.0445	-29712.57
0.9815,0.0185	-29700.65
0.9343,0.0657	-29717.40
0.9569,0.0431	-29706.27
0.9790,0.0210	-29712.30
0.9518,0.0482	-29718.83
0.9490,0.0510	-29716.04
0.9798,0.0202	-29692.96
0.9407,0.0593	-29711.22
0.9609,0.0391	-29718.63
0.9776,0.0224	-29708.41
0.9482,0.0518	-29719.01
0.9463,0.0537	-29707.64
0.9765,0.0235	-29700.94
0.9399,0.0601	-29716.83
0.9605,0.0395	-29709.06
0.9814,0.0186	-29704.62
0.9546,0.0454	-29727.87
0.9479,0.0521	-29704.52
0.9781,0.0219	-29697.03
0.9359,0.0641	-29725.28
0.9535,0.0465	-29709.70
0.9819,0.0181	-29708.62
0.9493,0.0507	-29716.02
0.9625,0.0375	-29708.91
0.9719,0.0281	-29711.97
0.9265,0.0735	-29733.53
0.9471,0.0529	-29719.07
0.9809,0.0191	-29708.55
0.9519,0.0481	-29706.89
0.9612,0.0388	-29715.42
0.9689,0.0311	-29705.09
0.9261,0.0739	-29725.96
0.9563,0.0437	-29712.51
0.9825,0.0175	-29704.64
0.9530,0.0470	-29715.78
0.9606,0.0394	-29725.02
0.9587,0.0413	-29709.21
0.9441,0.0559	-29722.09
0.9548,0.0452	-29700.42
0.9859,0.0141	-29700.58
0.9563,0.0437	-29712.51
0.9660,0.0340	-29718.72
0.9696,0.0304	-29711.96
0.9525,0.0475	-29712.81
0.9375,0.0625	-29708.95
0.9881,0.0119	-29700.66
0.9520,0.0480	-29709.86
0.9719,0.0281	-29701.34
0.9698,0.0302	-29708.49
0.9536,0.0464	-29706.67
0.9327,0.0673	-29720.22
0.9860,0.0140	-29700.58
0.9515,0.0485	-29706.94
0.9780,0.0220	-29693.24
0.9755,0.0245	-29697.33
0.9559,0.0441	-29709.47
0.9288,0.0712	-29723.18
0.9868,0.0132	-29691.98
0.9531,0.0469	-29709.75
0.9777,0.0223	-29697.07
0.9737,0.0263	-29704.78
0.9586,0.0414	-29721.79
0.9476,0.0524	-29724.83
0.9910,0.0090	-29696.22
0.9535,0.0465	-29724.81
0.9733,0.0267	-29708.40
0.9777,0.0223	-29697.08
0.9544,0.0456	-29724.82
0.9415,0.0585	-29727.78
0.9880,0.0120	-29700.65
0.9485,0.0515	-29727.73
0.9710,0.0290	-29711.96
0.9797,0.0203	-29696.86
0.9582,0.0418	-29728.05
0.9441,0.0559	-29719.26
0.9870,0.0130	-29704.93
0.9365,0.0635	-29719.86
0.9665,0.0335	-29708.65
0.9779,0.0221	-29700.84
0.9573,0.0427	-29728.00
0.9518,0.0482	-29712.87
0.9870,0.0130	-29696.28
0.9364,0.0636	-29727.94
0.9530,0.0470	-29718.79
0.9726,0.0274	-29704.84
0.9513,0.0487	-29718.85
0.9493,0.0507	-29721.88
0.9863,0.0137	-29704.87
0.9377,0.0623	-29719.76
0.9586,0.0414	-29715.50
0.9731,0.0269	-29704.81
0.9603,0.0397	-29709.07
0.9592,0.0408	-29712.32
0.9855,0.0145	-29692.13
0.9375,0.0625	-29722.48
0.9613,0.0387	-29712.21
0.9741,0.0259	-29708.39
0.9558,0.0442	-29706.41
0.9583,0.0417	-29709.25
0.9878,0.0122	-29700.64
0.9157,0.0843	-29722.15
0.9629,0.0371	-29708.88
0.9677,0.0323	-29701.78
0.9600,0.0400	-29715.46
0.9607,0.0393	-29712.24
0.9886,0.0114	-29696.22
0.9000,0.1000	-29733.16
0.9642,0.0358	-29705.49
0.9751,0.0249	-29697.37
0.9479,0.0521	-29716.12
0.9644,0.0356	-29702.18
0.9900,0.0100	-29696.20
0.8997,0.1003	-29741.97
0.9657,0.0343	-29698.68
0.9753,0.0247	-29693.67
0.9539,0.0461	-29706.63
0.9690,0.0310	-29708.52
0.9877,0.0123	-29696.25
0.9162,0.0838	-29731.66
0.9694,0.0306	-29705.05
0.9803,0.0197	-29700.70
0.9599,0.0401	-29718.63
0.9673,0.0327	-29701.83
0.9853,0.0147	-29704.78
0.9293,0.0707	-29720.56
0.9652,0.0348	-29705.40
0.9835,0.0165	-29716.95
0.9612,0.0388	-29715.42
0.9593,0.0407	-29712.32
0.9857,0.0143	-29713.28
0.9271,0.0729	-29725.88
0.9603,0.0397	-29705.89
0.9839,0.0161	-29700.58
0.9640,0.0360	-29718.66
0.9599,0.0401	-29731.34
0.9873,0.0127	-29709.33
0.9108,0.0892	-29734.43
0.9706,0.0294	-29701.47
0.9861,0.0139	-29696.33
0.9670,0.0330	-29701.86
0.9522,0.0478	-29709.84
0.9892,0.0108	-29700.73
0.9234,0.0766	-29738.64
0.9761,0.0239	-29715.80
0.9873,0.0127	-29700.62
0.9638,0.0362	-29702.25
0.9426,0.0574	-29713.77
0.9901,0.0099	-29691.60
0.9197,0.0803	-29721.65
0.9766,0.0234	-29712.13
0.9861,0.0139	-29700.58
0.9626,0.0374	-29708.90
0.9395,0.0605	-29725.09
0.9901,0.0099	-29696.20
0.9258,0.0742	-29718.42
0.9742,0.0258	-29708.39
0.9863,0.0137	-29692.04
0.9666,0.0334	-29705.27
0.9438,0.0562	-29713.64
0.9929,0.0071	-29691.38
0.9277,0.0723	-29713.08
0.9661,0.0339	-29708.67
0.9883,0.0117	-29700.66
0.9633,0.0367	-29702.32
0.9465,0.0535	-29716.23
0.9948,0.0052	-29701.83
0.9149,0.0851	-29734.14
0.9699,0.0301	-29718.90
0.9867,0.0133	-29700.60
0.9567,0.0433	-29712.49
0.9439,0.0561	-29716.45
0.9948,0.0052	-29701.80
0.9108,0.0892	-29725.13
0.9646,0.0354	-29721.98
0.9871,0.0129	-29691.94
0.9551,0.0449	-29721.77
0.9271,0.0729	-29728.42
0.9960,0.0040	-29691.34
0.9156,0.0844	-29719.80
0.9664,0.0336	-29712.01
0.9822,0.0178	-29708.64
0.9542,0.0458	-29703.56
0.9204,0.0796	-29728.91
0.9951,0.0049	-29696.63
0.9354,0.0646	-29730.65
0.9635,0.0365	-29712.11
0.9757,0.0243	-29697.31
0.9512,0.0488	-29718.86
0.9181,0.0819	-29726.69
0.9940,0.0060	-29691.33
0.9407,0.0593	-29711.22
0.9566,0.0434	-29709.40
0.9772,0.0228	-29697.13
0.9385,0.0615	-29722.42
0.9138,0.0862	-29724.77
0.9943,0.0057	-29696.48
0.9512,0.0488	-29724.80
0.9672,0.0328	-29715.38
0.9776,0.0224	-29715.96
0.9431,0.0569	-29719.33
0.9286,0.0714	-29733.46
0.9944,0.0056	-29696.50
0.9496,0.0504	-29721.87
0.9684,0.0316	-29701.71
0.9790,0.0210	-29704.61
0.9302,0.0698	-29723.06
0.9425,0.0575	-29716.58
0.9941,0.0059	-29691.32
0.9570,0.0430	-29718.67
0.9738,0.0262	-29701.16
0.9759,0.0241	-29715.79
0.9185,0.0815	-29724.22
0.9374,0.0626	-29711.66
0.9943,0.0057	-29691.32
0.9511,0.0489	-29724.80
0.9728,0.0272	-29708.41
0.9755,0.0245	-29708.38
0.9355,0.0645	-29727.97
0.9441,0.0559	-29724.91
0.9949,0.0051	-29701.84
0.9566,0.0434	-29703.21
0.9631,0.0369	-29715.39
0.9710,0.0290	-29704.94
0.9414,0.0586	-29722.23
0.9465,0.0535	-29727.73
0.9946,0.0054	-29696.54
0.9569,0.0431	-29709.37
0.9653,0.0347	-29712.04
0.9676,0.0324	-29705.19
0.9482,0.0518	-29710.29
0.9373,0.0627	-29725.20
0.9949,0.0051	-29696.58
0.9584,0.0416	-29699.82
0.9702,0.0298	-29725.89
0.9715,0.0285	-29704.91
0.9376,0.0624	-29725.19
0.9408,0.0592	-29713.97
0.9944,0.0056	-29696.50
0.9562,0.0438	-29703.27
0.9696,0.0304	-29694.66
0.9721,0.0279	-29697.77
0.9495,0.0505	-29716.01
0.9439,0.0561	-29716.45
0.9930,0.0070	-29701.27
0.9616,0.0384	-29708.97
0.9745,0.0255	-29719.31
0.9741,0.0259	-29701.13
0.9563,0.0437	-29724.86
0.9442,0.0558	-29727.74
0.9936,0.0064	-29691.34
0.9661,0.0339	-29715.37
0.9692,0.0308	-29711.96
0.9752,0.0248	-29701.04
0.9530,0.0470	-29709.75
0.9488,0.0512	-29716.05
0.9945,0.0055	-29691.31
0.9701,0.0299	-29694.56
0.9678,0.0322	-29725.59
0.9747,0.0253	-29708.38
0.9484,0.0516	-29716.09
0.9486,0.0514	-29721.90
0.9949,0.0051	-29696.57
0.9749,0.0251	-29708.38
0.9726,0.0274	-29694.13
0.9757,0.0243	-29704.69
0.9288,0.0712	-29728.32
0.9433,0.0567	-29713.70
0.9934,0.0066	-29701.37
0.9757,0.0243	-29701.00
0.9760,0.0240	-29700.97
0.9741,0.0259	-29693.87
0.9430,0.0570	-29724.95
0.9409,0.0591	-29725.03
0.9903,0.0097	-29696.21
0.9680,0.0320	-29715.39
0.9738,0.0262	-29715.62
0.9675,0.0325	-29711.99
0.9479,0.0521	-29733.53
0.9501,0.0499	-29727.75
0.9896,0.0104	-29696.21
0.9645,0.0355	-29698.86
0.9696,0.0304	-29701.57
0.9749,0.0251	-29708.38
0.9534,0.0466	-29709.72
0.9611,0.0389	-29715.42
0.9898,0.0102	-29696.20
0.9754,0.0246	-29715.74
0.9685,0.0315	-29701.69
0.9771,0.0229	-29704.65
0.9474,0.0526	-29707.50
0.9626,0.0374	-29715.39
0.9890,0.0110	-29696.21
0.9733,0.0267	-29704.80
0.9581,0.0419	-29709.26
0.9808,0.0192	-29704.61
0.9470,0.0530	-29716.20
0.9627,0.0373	-29708.89
0.9896,0.0104	-29696.21
0.9694,0.0306	-29718.87
0.9616,0.0384	-29718.63
0.9803,0.0197	-29704.61
0.9447,0.0553	-29716.38
0.9620,0.0380	-29715.41
0.9904,0.0096	-29696.21
0.9719,0.0281	-29701.34
0.9624,0.0376	-29708.91
0.9780,0.0220	-29693.24
0.9493,0.0507	-29727.74
0.9642,0.0358	-29708.79
0.9925,0.0075	-29691.40
0.9708,0.0292	-29701.45
0.9648,0.0352	-29708.75
0.9788,0.0212	-29693.12
0.9455,0.0545	-29713.47
0.9608,0.0392	-29709.03
0.9931,0.0069	-29691.36
0.9669,0.0331	-29712.00
0.9643,0.0357	-29718.67
0.9761,0.0239	-29700.97
0.9476,0.0524	-29724.83
0.9605,0.0395	-29712.25
0.9936,0.0064	-29696.39
0.9690,0.0310	-29708.53
0.9606,0.0394	-29712.24
0.9705,0.0295	-29697.98
0.9607,0.0393	-29712.24
0.9639,0.0361	-29708.80
0.9938,0.0062	-29696.41
0.9685,0.0315	-29701.70
0.9603,0.0397	-29712.26
0.9667,0.0333	-29705.27
0.9638,0.0362	-29705.53
0.9610,0.0390	-29718.63
0.9930,0.0070	-29701.27
0.9572,0.0428	-29712.45
0.9653,0.0347	-29715.37
0.9651,0.0349	-29715.37
0.9591,0.0409	-29709.17
0.9593,0.0407	-29699.67
0.9945,0.0055	-29701.70
0.9566,0.0434	-29715.59
0.9599,0.0401	-29702.76
0.9669,0.0331	-29708.62
0.9717,0.0283	-29711.97
0.9571,0.0429	-29715.56
0.9940,0.0060	-29691.33
0.9591,0.0409	-29712.33
0.9659,0.0341	-29698.65
0.9660,0.0340	-29705.33
0.9718,0.0282	-29704.89
0.9658,0.0342	-29715.37
0.9945,0.0055	-29696.50
0.9655,0.0345	-29725.36
0.9733,0.0267	-29719.19
0.9592,0.0408	-29718.64
0.9701,0.0299	-29715.44
0.9669,0.0331	-29718.75
0.9927,0.0073	-29691.39
0.9625,0.0375	-29712.15
0.9752,0.0248	-29693.69
0.9610,0.0390	-29715.43
0.9679,0.0321	-29705.17
0.9635,0.0365	-29705.56
0.9907,0.0093	-29696.21
0.9645,0.0355	-29698.86
0.9746,0.0254	-29697.44
0.9649,0.0351	-29715.37
0.9675,0.0325	-29705.20
0.9632,0.0368	-29712.12
0.9890,0.0110	-29691.72
0.9659,0.0341	-29701.99
0.9793,0.0207	-29696.89
0.9757,0.0243	-29697.30
0.9669,0.0331	-29715.37
0.9653,0.0347	-29705.39
0.9874,0.0126	-29696.26
0.9589,0.0411	-29706.04
0.9807,0.0193	-29700.68
0.9772,0.0228	-29700.88
0.9684,0.0316	-29708.55
0.9657,0.0343	-29712.03
0.9857,0.0143	-29700.58
0.9526,0.0474	-29730.80
0.9763,0.0237	-29704.67
0.9803,0.0197	-29708.51
0.9634,0.0366	-29699.03
0.9657,0.0343	-29705.35
0.9869,0.0131	-29696.28
0.9526,0.0474	-29709.80
0.9789,0.0211	-29708.45
0.9787,0.0213	-29693.13
0.9675,0.0325	-29705.20
0.9659,0.0341	-29701.99
0.9870,0.0130	-29700.61
0.9624,0.0376	-29712.15
0.9787,0.0213	-29696.96
0.9788,0.0212	-29700.78
0.9679,0.0321	-29722.20
0.9645,0.0355	-29715.37
0.9875,0.0125	-29691.88
0.9522,0.0478	-29715.82
0.9833,0.0167	-29700.59
0.9823,0.0177	-29712.67
0.9662,0.0338	-29698.60
0.9559,0.0441	-29715.62
0.9862,0.0138	-29692.04
0.9589,0.0411	-29718.64
0.9857,0.0143	-29696.35
0.9815,0.0185	-29700.65
0.9640,0.0360	-29712.09
0.9572,0.0428	-29715.56
0.9843,0.0157	-29696.44
0.9609,0.0391	-29709.03
0.9867,0.0133	-29704.90
0.9805,0.0195	-29696.77
0.9623,0.0377	-29725.12
0.9585,0.0415	-29718.65
0.9888,0.0112	-29691.74
0.9637,0.0363	-29702.27
0.9826,0.0174	-29704.64
0.9798,0.0202	-29700.73
0.9625,0.0375	-29715.40
0.9609,0.0391	-29709.03
0.9908,0.0092	-29691.53
0.9556,0.0444	-29706.43
0.9798,0.0202	-29704.61
0.9818,0.0182	-29708.61
0.9633,0.0367	-29715.38
0.9621,0.0379	-29712.17
0.9903,0.0097	-29696.21
0.9547,0.0453	-29709.58
0.9796,0.0204	-29700.73
0.9795,0.0205	-29727.81
0.9620,0.0380	-29705.71
0.9582,0.0418	-29712.39
0.9922,0.0078	-29696.27
0.9570,0.0430	-29706.26
0.9777,0.0223	-29715.97
0.9797,0.0203	-29700.73
0.9637,0.0363	-29708.82
0.9599,0.0401	-29718.63
0.9922,0.0078	-29696.27
0.9667,0.0333	-29708.64
0.9802,0.0198	-29692.90
0.9792,0.0208	-29716.16
0.9657,0.0343	-29705.36
0.9557,0.0443	-29715.63
0.9920,0.0080	-29691.43
0.9640,0.0360	-29725.24
0.9789,0.0211	-29696.94
0.9811,0.0189	-29696.71
0.9668,0.0332	-29701.89
0.9505,0.0495	-29712.98
0.9929,0.0071	-29696.32
0.9572,0.0428	-29709.35
0.9784,0.0216	-29708.43
0.9793,0.0207	-29700.75
0.9614,0.0386	-29705.77
0.9477,0.0523	-29716.14
0.9926,0.0074	-29696.29
0.9572,0.0428	-29718.67
0.9801,0.0199	-29708.50
0.9761,0.0239	-29704.68
0.9548,0.0452	-29712.63
0.9339,0.0661	-29720.10
0.9921,0.0079	-29691.43
0.9644,0.0356	-29715.37
0.9779,0.0221	-29697.05
0.9786,0.0214	-29696.97
0.9556,0.0444	-29718.70
0.9312,0.0688	-29728.18
0.9922,0.0078	-29705.95
0.9571,0.0429	-29715.56
0.9771,0.0229	-29712.15
0.9817,0.0183	-29700.64
0.9575,0.0425	-29706.20
0.9378,0.0622	-29722.46
0.9929,0.0071	-29691.38
0.9651,0.0349	-29712.05
0.9802,0.0198	-29696.81
0.9830,0.0170	-29712.78
0.9559,0.0441	-29724.85
0.9281,0.0719	-29720.68
0.9943,0.0057	-29696.48
0.9573,0.0427	-29709.33
0.9792,0.0208	-29693.05
0.9821,0.0179	-29708.64
0.9589,0.0411	-29715.49
0.9299,0.0701	-29712.75
0.9948,0.0052	-29696.56
0.9436,0.0564	-29719.30
0.9773,0.0227	-29715.93
0.9864,0.0136	-29696.30
0.9513,0.0487	-29706.97
0.9398,0.0602	-29725.08
0.9945,0.0055	-29691.31
0.9469,0.0531	-29719.08
0.9796,0.0204	-29696.86
0.9835,0.0165	-29704.68
0.9576,0.0424	-29718.66
0.9424,0.0576	-29730.56
0.9946,0.0054	-29691.31
0.9422,0.0578	-29708.24
0.9771,0.0229	-29700.89
0.9837,0.0163	-29704.68
0.9496,0.0504	-29710.13
0.9425,0.0575	-29702.60
0.9940,0.0060	-29691.32
0.9422,0.0578	-29713.82
0.9818,0.0182	-29704.62
0.9835,0.0165	-29708.77
0.9430,0.0570	-29710.92
0.9384,0.0616	-29725.14
0.9933,0.0067	-29706.33
0.9353,0.0647	-29711.95
0.9836,0.0164	-29696.49
0.9789,0.0211	-29693.11
0.9433,0.0567	-29719.32
0.9494,0.0506	-29721.88
0.9924,0.0076	-29696.28
0.9381,0.0619	-29711.57
0.9824,0.0176	-29700.61
0.9771,0.0229	-29704.65
0.9381,0.0619	-29733.31
0.9657,0.0343	-29712.03
0.9883,0.0117	-29700.66
0.9417,0.0583	-29722.22
0.9813,0.0187	-29700.65
0.9771,0.0229	-29700.89
0.9228,0.0772	-29728.73
0.9708,0.0292	-29708.46
0.9844,0.0156	-29692.29
0.9280,0.0720	-29730.92
0.9767,0.0233	-29712.13
0.9720,0.0280	-29701.33
0.9237,0.0763	-29726.17
0.9697,0.0303	-29701.56
0.9842,0.0158	-29696.45
0.9271,0.0729	-29713.17
0.9751,0.0249	-29708.38
0.9705,0.0295	-29708.47
0.9220,0.0780	-29738.67
0.9636,0.0364	-29715.38
0.9839,0.0161	-29704.69
0.9382,0.0618	-29722.43
0.9786,0.0214	-29708.44
0.9757,0.0243	-29712.08
0.9249,0.0751	-29728.57
0.9691,0.0309	-29708.52
0.9791,0.0209	-29700.76
0.9354,0.0646	-29719.96
0.9763,0.0237	-29708.39
0.9731,0.0269	-29704.81
0.9240,0.0760	-29721.14
0.9701,0.0299	-29715.44
0.9815,0.0185	-29704.62
0.9329,0.0671	-29728.09
0.9816,0.0184	-29700.64
0.9801,0.0199	-29704.61
0.9299,0.0701	-29725.67
0.9679,0.0321	-29705.16
0.9813,0.0187	-29700.66
0.9335,0.0665	-29717.49
0.9790,0.0210	-29708.45
0.9809,0.0191	-29696.74
0.9402,0.0598	-29722.30
0.9678,0.0322	-29711.98
0.9815,0.0185	-29696.67
0.9337,0.0663	-29722.76
0.9838,0.0162	-29696.48
0.9807,0.0193	-29704.61
0.9394,0.0606	-29730.58
0.9743,0.0257	-29701.11
0.9852,0.0148	-29696.38
0.9307,0.0693	-29733.40
0.9824,0.0176	-29692.57
0.9793,0.0207	-29704.61
0.9491,0.0509	-29716.04
0.9737,0.0263	-29708.39
0.9862,0.0138	-29700.59
0.9426,0.0574	-29719.36
0.9845,0.0155	-29692.27
0.9817,0.0183	-29704.62
0.9526,0.0474	-29700.79
0.9693,0.0307	-29715.42
0.9875,0.0125	-29691.89
0.9488,0.0512	-29724.82
0.9827,0.0173	-29696.57
0.9780,0.0220	-29700.83
0.9543,0.0457	-29715.70
0.9632,0.0368	-29725.18
0.9863,0.0137	-29696.31
0.9493,0.0507	-29713.09
0.9816,0.0184	-29696.66
0.9767,0.0233	-29708.39
0.9564,0.0436	-29715.60
0.9667,0.0333	-29708.64
0.9817,0.0183	-29704.62
0.9440,0.0560	-29722.09
0.9819,0.0181	-29692.64
0.9750,0.0250	-29701.06
0.9541,0.0459	-29712.68
0.9643,0.0357	-29715.37
0.9769,0.0231	-29704.65
0.9399,0.0601	-29727.82
0.9805,0.0195	-29708.53
0.9719,0.0281	-29697.79
0.9311,0.0689	-29730.79
0.9663,0.0337	-29708.66
0.9795,0.0205	-29708.47
0.9418,0.0582	-29716.65
0.9768,0.0232	-29712.14
0.9724,0.0276	-29704.85
0.9355,0.0645	-29725.30
0.9624,0.0376	-29725.12
0.9863,0.0137	-29692.03
0.9406,0.0594	-29719.52
0.9810,0.0190	-29704.61
0.9701,0.0299	-29698.05
0.9484,0.0516	-29707.35
0.9625,0.0375	-29702.42
0.9870,0.0130	-29691.95
0.9526,0.0474	-29730.80
0.9843,0.0157	-29696.44
0.9634,0.0366	-29699.03
0.9405,0.0595	-29727.81
0.9623,0.0377	-29715.40
0.9839,0.0161	-29700.58
0.9544,0.0456	-29700.48
0.9858,0.0142	-29700.58
0.9662,0.0338	-29722.08
0.9436,0.0564	-29736.20
0.9619,0.0381	-29715.41
0.9855,0.0145	-29700.58
0.9546,0.0454	-29715.68
0.9861,0.0139	-29700.58
0.9655,0.0345	-29708.70
0.9314,0.0686	-29709.91
0.9593,0.0407	-29721.80
0.9854,0.0146	-29700.58
0.9639,0.0361	-29712.09
0.9875,0.0125	-29705.00
0.9633,0.0367	-29721.92
0.9151,0.0849	-29734.12
0.9482,0.0518	-29719.01
0.9876,0.0124	-29691.87
0.9621,0.0379	-29705.70
0.9862,0.0138	-29696.32
0.9588,0.0412	-29709.21
0.9059,0.0941	-29728.03
0.9385,0.0615	-29736.04
0.9874,0.0126	-29700.62
0.9709,0.0291	-29708.45
0.9867,0.0133	-29696.29
0.9605,0.0395	-29705.87
0.9166,0.0834	-29741.22
0.9474,0.0526	-29716.17
0.9906,0.0094	-29700.86
0.9730,0.0270	-29697.65
0.9860,0.0140	-29696.33
0.9548,0.0452	-29712.62
0.9122,0.0878	-29736.67
0.9503,0.0497	-29715.95
0.9903,0.0097	-29696.21
0.9761,0.0239	-29704.68
0.9839,0.0161	-29696.47
0.9554,0.0446	-29718.71
0.9182,0.0818	-29738.77
0.9530,0.0470	-29712.77
0.9899,0.0101	-29705.37
0.9756,0.0244	-29701.01
0.9833,0.0167	-29704.67
0.9672,0.0328	-29711.99
0.9252,0.0748	-29738.61
0.9573,0.0427	-29715.55
0.9903,0.0097	-29696.21
0.9754,0.0246	-29697.35
0.9764,0.0236	-29693.51
0.9641,0.0359	-29715.37
0.9419,0.0581	-29727.78
0.9602,0.0398	-29712.27
0.9913,0.0087	-29691.49
0.9762,0.0238	-29700.96
0.9729,0.0271	-29701.25
0.9721,0.0279	-29694.22
0.9521,0.0479	-29733.77
0.9639,0.0361	-29712.09
0.9914,0.0086	-29696.23
0.9816,0.0184	-29700.64
0.9670,0.0330	-29701.87
0.9680,0.0320	-29705.16
0.9548,0.0452	-29712.62
0.9604,0.0396	-29702.69
0.9922,0.0078	-29691.42
0.9884,0.0116	-29705.11
0.9602,0.0398	-29715.45
0.9606,0.0394	-29718.63
0.9623,0.0377	-29702.44
0.9632,0.0368	-29708.86
0.9923,0.0077	-29701.13
0.9848,0.0152	-29708.92
0.9584,0.0416	-29718.65
0.9631,0.0369	-29699.08
0.9607,0.0393	-29718.63
0.9586,0.0414	-29709.22
0.9937,0.0063	-29691.34
0.9905,0.0095	-29691.56
0.9682,0.0318	-29701.73
0.9701,0.0299	-29722.40
0.9648,0.0352	-29708.75
0.9620,0.0380	-29718.64
0.9936,0.0064	-29696.38
0.9905,0.0095	-29705.50
0.9723,0.0277	-29711.97
0.9629,0.0371	-29725.16
0.9690,0.0310	-29708.52
0.9663,0.0337	-29708.66
0.9950,0.0050	-29707.22
0.9904,0.0096	-29696.21
0.9769,0.0231	-29700.91
0.9574,0.0426	-29715.55
0.9669,0.0331	-29705.25
0.9691,0.0309	-29711.96
0.9938,0.0062	-29701.49
0.9895,0.0105	-29696.21
0.9716,0.0284	-29701.37
0.9478,0.0522	-29724.83
0.9664,0.0336	-29715.37
0.9661,0.0339	-29705.32
0.9932,0.0068	-29691.36
0.9895,0.0105	-29700.75
0.9730,0.0270	-29697.65
0.9425,0.0575	-29702.60
0.9672,0.0328	-29711.99
0.9707,0.0293	-29711.96
0.9922,0.0078	-29696.27
0.9916,0.0084	-29696.23
0.9666,0.0334	-29695.19
0.9526,0.0474	-29727.80
0.9742,0.0258	-29701.12
0.9690,0.0310	-29708.52
0.9928,0.0072	-29691.38
0.9892,0.0108	-29696.21
0.9712,0.0288	-29697.89
0.9525,0.0475	-29709.81
0.9722,0.0278	-29719.09
0.9738,0.0262	-29712.01
0.9922,0.0078	-29691.42
0.9871,0.0129	-29696.27
0.9651,0.0349	-29705.40
0.9576,0.0424	-29706.19
0.9746,0.0254	-29693.79
0.9721,0.0279	-29701.32
0.9911,0.0089	-29691.51
0.9889,0.0111	-29691.72
0.9653,0.0347	-29705.39
0.9621,0.0379	-29712.17
0.9755,0.0245	-29704.70
0.9655,0.0345	-29698.71
0.9930,0.0070	-29691.37
0.9887,0.0113	-29696.22
0.9680,0.0320	-29722.21
0.9579,0.0421	-29718.66
0.9725,0.0275	-29704.85
0.9704,0.0296	-29715.45
0.9916,0.0084	-29696.24
0.9879,0.0121	-29691.84
0.9691,0.0309	-29722.30
0.9474,0.0526	-29713.27
0.9720,0.0280	-29701.33
0.9763,0.0237	-29712.11
0.9921,0.0079	-29691.42
0.9888,0.0112	-29691.74
0.9628,0.0372	-29705.63
0.9431,0.0569	-29708.09
0.9761,0.0239	-29704.68
0.9789,0.0211	-29712.29
0.9936,0.0064	-29696.38
0.9908,0.0092	-29691.53
0.9550,0.0450	-29721.77
0.9539,0.0461	-29709.66
0.9756,0.0244	-29701.00
0.9834,0.0166	-29696.51
0.9943,0.0057	-29691.32
0.9866,0.0134	-29691.99
0.9592,0.0408	-29712.33
0.9564,0.0436	-29718.68
0.9783,0.0217	-29700.81
0.9815,0.0185	-29708.59
0.9951,0.0049	-29691.31
0.9866,0.0134	-29696.29
0.9596,0.0404	-29721.80
0.9531,0.0469	-29712.76
0.9756,0.0244	-29701.01
0.9789,0.0211	-29712.29
0.9946,0.0054	-29691.31
0.9881,0.0119	-29696.24
0.9599,0.0401	-29699.58
0.9503,0.0497	-29704.14
0.9811,0.0189	-29712.51
0.9778,0.0222	-29712.20
0.9946,0.0054	-29691.31
0.9892,0.0108	-29696.21
0.9537,0.0463	-29718.76
0.9485,0.0515	-29716.08
0.9812,0.0188	-29700.66
0.9722,0.0278	-29697.75
0.9957,0.0043	-29691.32
0.9878,0.0122	-29696.24
0.9549,0.0451	-29715.67
0.9444,0.0556	-29716.41
0.9784,0.0216	-29697.00
0.9709,0.0291	-29715.47
0.9957,0.0043	-29691.32
0.9862,0.0138	-29700.59
0.9623,0.0377	-29715.40
0.9354,0.0646	-29725.31
0.9795,0.0205	-29704.61
0.9629,0.0371	-29702.37
0.9962,0.0038	-29691.35
0.9888,0.0112	-29705.18
0.9635,0.0365	-29705.57
0.9330,0.0670	-29720.18
0.9843,0.0157	-29708.85
0.9573,0.0427	-29706.23
0.9958,0.0042	-29696.81
0.9882,0.0118	-29705.08
0.9613,0.0387	-29705.79
0.9359,0.0641	-29711.88
0.9813,0.0187	-29696.69
0.9568,0.0432	-29696.99
0.9955,0.0045	-29691.32
0.9861,0.0139	-29700.58
0.9656,0.0344	-29712.03
0.9304,0.0696	-29741.19
0.9847,0.0153	-29700.58
0.9580,0.0420	-29715.53
0.9969,0.0031	-29697.18
0.9857,0.0143	-29692.11
0.9652,0.0348	-29705.40
0.9359,0.0641	-29717.23
0.9866,0.0134	-29692.00
0.9614,0.0386	-29705.77
0.9964,0.0036	-29691.36
0.9867,0.0133	-29691.99
0.9512,0.0488	-29718.86
0.9476,0.0524	-29719.04
0.9870,0.0130	-29700.61
0.9599,0.0401	-29715.46
0.9965,0.0035	-29702.66
0.9905,0.0095	-29696.21
0.9608,0.0392	-29709.03
0.9527,0.0473	-29709.79
0.9878,0.0122	-29713.82
0.9590,0.0410	-29709.18
0.9963,0.0037	-29691.35
0.9915,0.0085	-29696.23
0.9593,0.0407	-29709.16
0.9493,0.0507	-29701.37
0.9899,0.0101	-29696.20
0.9451,0.0549	-29713.50
0.9965,0.0035	-29691.37
0.9897,0.0103	-29700.77
0.9547,0.0453	-29700.44
0.9541,0.0459	-29712.68
0.9885,0.0115	-29691.77
0.9425,0.0575	-29713.78
0.9963,0.0037	-29691.36
0.9908,0.0092	-29705.57
0.9591,0.0409	-29702.87
0.9473,0.0527	-29724.84
0.9859,0.0141	-29692.09
0.9343,0.0657	-29725.37
0.9970,0.0030	-29697.25
0.9905,0.0095	-29696.21
0.9618,0.0382	-29708.96
0.9584,0.0416	-29706.10
0.9822,0.0178	-29708.64
0.9212,0.0788	-29728.85
0.9972,0.0028	-29691.46
0.9908,0.0092	-29691.53
0.9568,0.0432	-29700.09
0.9701,0.0299	-29708.48
0.9773,0.0227	-29700.88
0.9290,0.0710	-29710.30
0.9967,0.0033	-29691.39
0.9894,0.0106	-29696.21
0.9613,0.0387	-29721.85
0.9768,0.0232	-29708.40
0.9790,0.0210	-29704.61
0.9328,0.0672	-29725.46
0.9967,0.0033	-29691.39
0.9866,0.0134	-29696.30
0.9666,0.0334	-29701.91
0.9729,0.0271	-29715.56
0.9790,0.0210	-29708.45
0.9371,0.0629	-29730.61
0.9974,0.0026	-29691.48
0.9845,0.0155	-29700.58
0.9656,0.0344	-29705.36
0.9756,0.0244	-29701.01
0.9833,0.0167	-29700.59
0.9382,0.0618	-29717.00
0.9971,0.0029	-29697.28
0.9859,0.0141	-29696.33
0.9642,0.0358	-29708.78
0.9795,0.0205	-29696.88
0.9839,0.0161	-29700.58
0.9187,0.0813	-29731.48
0.9973,0.0027	-29691.47
0.9861,0.0139	-29692.06
0.9646,0.0354	-29698.85
0.9830,0.0170	-29712.78
0.9763,0.0237	-29704.67
0.9219,0.0781	-29721.39
0.9968,0.0032	-29697.14
0.9876,0.0124	-29700.63
0.9670,0.0330	-29722.13
0.9868,0.0132	-29700.60
0.9803,0.0197	-29700.70
0.9353,0.0647	-29719.97
0.9969,0.0031	-29702.93
0.9895,0.0105	-29700.75
0.9657,0.0343	-29708.69
0.9879,0.0121	-29696.24
0.9816,0.0184	-29708.60
0.9246,0.0754	-29731.10
0.9961,0.0039	-29691.34
0.9922,0.0078	-29691.42
0.9676,0.0324	-29715.38
0.9872,0.0128	-29704.96
0.9783,0.0217	-29697.00
0.9406,0.0594	-29727.81
0.9953,0.0047	-29696.66
0.9939,0.0061	-29691.33
0.9644,0.0356	-29702.17
0.9865,0.0135	-29704.88
0.9792,0.0208	-29700.76
0.9566,0.0434	-29709.40
0.9944,0.0056	-29696.50
0.9933,0.0067	-29691.35
0.9625,0.0375	-29712.15
0.9855,0.0145	-29692.14
0.9765,0.0235	-29719.58
0.9612,0.0388	-29715.42
0.9949,0.0051	-29691.31
0.9934,0.0066	-29691.35
0.9578,0.0422	-29715.53
0.9830,0.0170	-29704.66
0.9822,0.0178	-29708.64
0.9622,0.0378	-29702.46
0.9953,0.0047	-29691.31
0.9922,0.0078	-29696.27
0.9640,0.0360	-29695.65
0.9844,0.0156	-29696.43
0.9865,0.0135	-29700.59
0.9524,0.0476	-29706.83
0.9945,0.0055	-29691.31
0.9926,0.0074	-29696.29
0.9564,0.0436	-29727.95
0.9850,0.0150	-29692.21
0.9886,0.0114	-29705.15
0.9558,0.0442	-29712.55
0.9942,0.0058	-29691.32
0.9914,0.0086	-29700.97
0.9475,0.0525	-29716.16
0.9853,0.0147	-29717.40
0.9892,0.0108	-29696.21
0.9554,0.0446	-29715.64
0.9943,0.0057	-29691.32
0.9921,0.0079	-29696.26
0.9446,0.0554	-29719.23
0.9885,0.0115	-29709.58
0.9903,0.0097	-29691.58
0.9500,0.0500	-29718.91
0.9959,0.0041	-29696.82
0.9931,0.0069	-29691.37
0.9368,0.0632	-29725.22
0.9855,0.0145	-29700.58
0.9921,0.0079	-29691.43
0.9406,0.0594	-29716.76
0.9952,0.0048	-29691.31
0.9911,0.0089	-29700.93
0.9414,0.0586	-29719.46
0.9845,0.0155	-29704.73
0.9943,0.0057	-29691.32
0.9457,0.0543	-29736.30
0.9957,0.0043	-29696.77
0.9905,0.0095	-29696.21
0.9496,0.0504	-29713.06
0.9795,0.0205	-29700.74
0.9939,0.0061	-29691.33
0.9396,0.0604	-29719.60
0.9969,0.0031	-29691.41
0.9895,0.0105	-29700.75
0.9537,0.0463	-29715.74
0.9757,0.0243	-29704.69
0.9934,0.0066	-29711.38
0.9382,0.0618	-29722.44
0.9971,0.0029	-29697.27
0.9909,0.0091	-29700.91
0.9535,0.0465	-29730.85
0.9706,0.0294	-29708.46
0.9914,0.0086	-29700.98
0.9325,0.0675	-29735.99
0.9975,0.0025	-29691.51
0.9891,0.0109	-29705.23
0.9570,0.0430	-29709.36
0.9686,0.0314	-29708.54
0.9932,0.0068	-29691.36
0.9414,0.0586	-29722.24
0.9976,0.0024	-29691.54
0.9898,0.0102	-29696.20
0.9656,0.0344	-29712.03
0.9709,0.0291	-29722.49
0.9923,0.0077	-29701.14
0.9397,0.0603	-29716.84
0.9974,0.0026	-29691.48
0.9884,0.0116	-29696.22
0.9576,0.0424	-29724.89
0.9750,0.0250	-29726.69
0.9929,0.0071	-29701.25
0.9382,0.0618	-29719.72
0.9974,0.0026	-29691.48
0.9898,0.0102	-29700.78
0.9541,0.0459	-29706.61
0.9764,0.0236	-29704.67
0.9931,0.0069	-29696.33
0.9316,0.0684	-29725.55
0.9968,0.0032	-29691.40
0.9907,0.0093	-29696.21
0.9499,0.0501	-29713.04
0.9729,0.0271	-29697.66
0.9933,0.0067	-29691.35
0.9219,0.0781	-29728.79
0.9959,0.0041	-29696.83
0.9914,0.0086	-29691.49
0.9452,0.0548	-29716.34
0.9703,0.0297	-29698.02
0.9948,0.0052	-29691.31
0.9228,0.0772	-29723.76
0.9966,0.0034	-29691.38
0.9895,0.0105	-29700.76
0.9396,0.0604	-29711.36
0.9704,0.0296	-29708.47
0.9942,0.0058	-29696.47
0.9337,0.0663	-29712.19
0.9965,0.0035	-29714.02
0.9897,0.0103	-29696.21
0.9497,0.0503	-29715.99
0.9665,0.0335	-29712.01
0.9941,0.0059	-29696.44
0.9397,0.0603	-29711.35
0.9970,0.0030	-29697.22
0.9888,0.0112	-29696.22
0.9579,0.0421	-29709.28
0.9714,0.0286	-29708.44
0.9949,0.0051	-29701.85
0.9444,0.0556	-29724.90
0.9965,0.0035	-29697.03
0.9822,0.0178	-29712.65
0.9632,0.0368	-29708.85
0.9695,0.0305	-29705.05
0.9942,0.0058	-29706.77
0.9432,0.0568	-29713.71
0.9967,0.0033	-29691.40
0.9816,0.0184	-29696.66
0.9600,0.0400	-29715.46
0.9685,0.0315	-29711.97
0.9938,0.0062	-29701.49
0.9418,0.0582	-29713.86
0.9976,0.0024	-29691.53
0.9784,0.0216	-29700.81
0.9698,0.0302	-29715.43
0.9744,0.0256	-29697.47
0.9941,0.0059	-29696.45
0.9430,0.0570	-29722.14
0.9973,0.0027	-29691.47
0.9811,0.0189	-29712.51
0.9611,0.0389	-29712.22
0.9661,0.0339	-29712.02
0.9919,0.0081	-29701.06
0.9469,0.0531	-29713.32
0.9973,0.0027	-29697.39
0.9823,0.0177	-29692.59
0.9633,0.0367	-29705.58
0.9707,0.0293	-29718.96
0.9917,0.0083	-29696.24
0.9354,0.0646	-29727.98
0.9972,0.0028	-29691.45
0.9841,0.0159	-29700.58
0.9606,0.0394	-29712.24
0.9712,0.0288	-29701.40
0.9917,0.0083	-29701.02
0.9492,0.0508	-29716.03
0.9968,0.0032	-29691.41
0.9806,0.0194	-29700.68
0.9603,0.0397	-29715.45
0.9715,0.0285	-29708.44
0.9907,0.0093	-29700.88
0.9419,0.0581	-29713.85
0.9974,0.0026	-29691.48
0.9796,0.0204	-29720.10
0.9572,0.0428	-29715.56
0.9696,0.0304	-29705.04
0.9895,0.0105	-29696.21
0.9516,0.0484	-29718.84
0.9978,0.0022	-29691.59
0.9773,0.0227	-29700.88
0.9551,0.0449	-29712.60
0.9715,0.0285	-29704.91
0.9907,0.0093	-29696.21
0.9468,0.0532	-29736.37
0.9976,0.0024	-29691.53
0.9783,0.0217	-29716.04
0.9561,0.0439	-29709.45
0.9651,0.0349	-29712.05
0.9912,0.0088	-29691.50
0.9396,0.0604	-29727.83
0.9979,0.0021	-29697.75
0.9706,0.0294	-29715.46
0.9610,0.0390	-29718.63
0.9570,0.0430	-29715.57
0.9943,0.0057	-29691.32
0.9386,0.0614	-29725.14
0.9980,0.0020	-29697.84
0.9648,0.0352	-29715.37
0.9592,0.0408	-29709.17
0.9555,0.0445	-29712.57
0.9953,0.0047	-29691.31
0.9223,0.0777	-29726.29
0.9981,0.0019	-29691.68
0.9703,0.0297	-29704.98
0.9674,0.0326	-29701.82
0.9585,0.0415	-29718.65
0.9949,0.0051	-29691.31
0.9312,0.0688	-29725.57
0.9980,0.0020	-29697.82
0.9797,0.0203	-29704.61
0.9698,0.0302	-29701.55
0.9616,0.0384	-29702.54
0.9939,0.0061	-29696.43
0.9271,0.0729	-29725.88
0.9987,0.0013	-29691.93
0.9785,0.0215	-29700.80
0.9708,0.0292	-29722.47
0.9664,0.0336	-29701.93
0.9930,0.0070	-29691.37
0.9290,0.0710	-29730.88
0.9988,0.0012	-29691.99
0.9751,0.0249	-29701.05
0.9748,0.0252	-29708.38
0.9656,0.0344	-29712.03
0.9920,0.0080	-29701.08
0.9204,0.0796	-29728.91
0.9986,0.0014	-29691.87
0.9750,0.0250	-29708.38
0.9728,0.0272	-29697.68
0.9590,0.0410	-29702.88
0.9885,0.0115	-29691.77
0.9211,0.0789	-29716.57
0.9987,0.0013	-29691.94
0.9731,0.0269	-29711.99
0.9722,0.0278	-29701.31
0.9606,0.0394	-29702.66
0.9895,0.0105	-29691.66
0.9328,0.0672	-29725.46
0.9988,0.0012	-29698.67
0.9682,0.0318	-29705.14
0.9773,0.0227	-29700.88
0.9633,0.0367	-29712.12
0.9920,0.0080	-29696.25
0.9354,0.0646	-29722.63
0.9987,0.0013	-29691.92
0.9725,0.0275	-29711.98
0.9804,0.0196	-29696.78
0.9656,0.0344	-29708.70
0.9903,0.0097	-29691.58
0.9490,0.0510	-29707.27
0.9989,0.0011	-29692.05
0.9698,0.0302	-29705.02
0.9763,0.0237	-29704.67
0.9770,0.0230	-29715.90
0.9922,0.0078	-29701.12
0.9442,0.0558	-29716.43
0.9991,0.0009	-29692.18
0.9735,0.0265	-29708.39
0.9783,0.0217	-29704.62
0.9787,0.0213	-29712.27
0.9919,0.0081	-29691.44
0.9476,0.0524	-29710.36
0.9991,0.0009	-29692.24
0.9789,0.0211	-29704.61
0.9824,0.0176	-29700.62
0.9805,0.0195	-29704.61
0.9919,0.0081	-29691.45
0.9522,0.0478	-29721.81
0.9990,0.0010	-29692.16
0.9806,0.0194	-29700.69
0.9823,0.0177	-29696.60
0.9774,0.0226	-29704.64
0.9920,0.0080	-29696.25
0.9513,0.0487	-29730.74
0.9989,0.0011	-29692.03
0.9744,0.0256	-29701.11
0.9788,0.0212	-29704.61
0.9757,0.0243	-29708.38
0.9893,0.0107	-29709.80
0.9581,0.0419	-29712.39
0.9991,0.0009	-29692.23
0.9787,0.0213	-29704.61
0.9797,0.0203	-29696.85
0.9778,0.0222	-29700.84
0.9882,0.0118	-29696.23
0.9642,0.0358	-29705.49
0.9988,0.0012	-29692.02
0.9810,0.0190	-29716.44
0.9809,0.0191	-29704.61
0.9751,0.0249	-29704.71
0.9889,0.0111	-29700.70
0.9630,0.0370	-29715.39
0.9988,0.0012	-29692.01
0.9780,0.0220	-29712.21
0.9793,0.0207	-29704.61
0.9777,0.0223	-29712.19
0.9855,0.0145	-29704.80
0.9662,0.0338	-29728.78
0.9985,0.0015	-29704.83
0.9810,0.0190	-29696.72
0.9829,0.0171	-29708.71
0.9732,0.0268	-29708.40
0.9880,0.0120	-29705.05
0.9656,0.0344	-29712.03
0.9987,0.0013	-29691.91
0.9826,0.0174	-29712.72
0.9817,0.0183	-29696.66
0.9710,0.0290	-29711.96
0.9866,0.0134	-29700.59
0.9695,0.0305	-29708.50
0.9984,0.0016	-29691.79
0.9845,0.0155	-29696.43
0.9763,0.0237	-29700.95
0.9624,0.0376	-29705.67
0.9893,0.0107	-29705.27
0.9713,0.0287	-29701.39
0.9979,0.0021	-29691.62
0.9813,0.0187	-29696.70
0.9799,0.0201	-29696.83
0.9584,0.0416	-29712.37
0.9890,0.0110	-29691.71
0.9744,0.0256	-29701.11
0.9981,0.0019	-29691.66
0.9791,0.0209	-29700.76
0.9781,0.0219	-29712.22
0.9519,0.0481	-29718.83
0.9895,0.0105	-29696.21
0.9703,0.0297	-29711.96
0.9979,0.0021	-29697.77
0.9743,0.0257	-29708.39
0.9754,0.0246	-29704.70
0.9615,0.0385	-29708.98
0.9888,0.0112	-29696.22
0.9744,0.0256	-29701.10
0.9978,0.0022	-29691.59
0.9698,0.0302	-29718.90
0.9703,0.0297	-29701.50
0.9728,0.0272	-29711.98
0.9891,0.0109	-29691.70
0.9692,0.0308	-29705.06
0.9976,0.0024	-29691.52
0.9724,0.0276	-29704.85
0.9690,0.0310	-29705.08
0.9635,0.0365	-29708.83
0.9876,0.0124	-29696.25
0.9715,0.0285	-29697.84
0.9970,0.0030	-29691.42
0.9780,0.0220	-29704.63
0.9653,0.0347	-29712.04
0.9691,0.0309	-29711.96
0.9862,0.0138	-29696.32
0.9685,0.0315	-29705.12
0.9965,0.0035	-29691.37
0.9781,0.0219	-29704.62
0.9639,0.0361	-29715.38
0.9643,0.0357	-29708.78
0.9875,0.0125	-29696.26
0.9619,0.0381	-29718.64
0.9967,0.0033	-29697.12
0.9774,0.0226	-29704.64
0.9615,0.0385	-29708.98
0.9584,0.0416	-29712.37
0.9886,0.0114	-29696.22
0.9632,0.0368	-29712.12
0.9964,0.0036	-29696.98
0.9787,0.0213	-29696.96
0.9588,0.0412	-29709.20
0.9538,0.0462	-29712.70
0.9903,0.0097	-29705.45
0.9591,0.0409	-29699.71
0.9956,0.0044	-29691.32
0.9830,0.0170	-29700.60
0.9578,0.0422	-29715.53
0.9569,0.0431	-29715.57
0.9893,0.0107	-29691.68
0.9640,0.0360	-29708.80
0.9943,0.0057	-29691.32
0.9775,0.0225	-29697.10
0.9559,0.0441	-29703.31
0.9645,0.0355	-29715.37
0.9904,0.0096	-29691.57
0.9612,0.0388	-29712.21
0.9940,0.0060	-29696.44
0.9760,0.0240	-29704.68
0.9569,0.0431	-29712.47
0.9662,0.0338	-29712.02
0.9925,0.0075	-29706.05
0.9554,0.0446	-29724.84
0.9940,0.0060	-29696.44
0.9747,0.0253	-29708.38
0.9588,0.0412	-29712.35
0.9761,0.0239	-29700.97
0.9887,0.0113	-29696.22
0.9565,0.0435	-29706.31
0.9931,0.0069	-29701.30
0.9780,0.0220	-29704.63
0.9635,0.0365	-29725.20
0.9769,0.0231	-29708.40
0.9889,0.0111	-29700.71
0.9586,0.0414	-29718.65
0.9945,0.0055	-29691.31
0.9736,0.0264	-29701.18
0.9574,0.0426	-29706.22
0.9757,0.0243	-29704.69
0.9905,0.0095	-29710.16
0.9536,0.0464	-29727.83
0.9946,0.0054	-29696.54
0.9767,0.0233	-29708.39
0.9563,0.0437	-29727.94
0.9788,0.0212	-29700.78
0.9915,0.0085	-29700.99
0.9595,0.0405	-29712.31
0.9939,0.0061	-29706.61
0.9769,0.0231	-29700.91
0.9625,0.0375	-29712.15
0.9854,0.0146	-29704.79
0.9894,0.0106	-29709.81
0.9668,0.0332	-29701.89
0.9925,0.0075	-29706.05
0.9722,0.0278	-29701.31
0.9498,0.0502	-29721.86
0.9839,0.0161	-29704.69
0.9887,0.0113	-29705.17
0.9648,0.0352	-29721.99
0.9938,0.0062	-29701.50
0.9743,0.0257	-29701.11
0.9643,0.0357	-29708.78
0.9824,0.0176	-29700.62
0.9881,0.0119	-29696.24
0.9644,0.0356	-29715.37
0.9953,0.0047	-29696.66
0.9671,0.0329	-29708.61
0.9565,0.0435	-29709.41
0.9808,0.0192	-29712.47
0.9871,0.0129	-29704.95
0.9660,0.0340	-29722.06
0.9948,0.0052	-29696.57
0.9579,0.0421	-29709.28
0.9577,0.0423	-29715.54
0.9767,0.0233	-29697.19
0.9835,0.0165	-29700.59
0.9610,0.0390	-29715.43
0.9937,0.0063	-29696.40
0.9592,0.0408	-29712.33
0.9597,0.0403	-29718.64
0.9785,0.0215	-29700.80
0.9831,0.0169	-29708.73
0.9715,0.0285	-29708.44
0.9932,0.0068	-29706.31
0.9646,0.0354	-29708.76
0.9501,0.0499	-29713.02
0.9782,0.0218	-29712.23
0.9804,0.0196	-29692.87
0.9670,0.0330	-29705.24
0.9911,0.0089	-29696.22
0.9682,0.0318	-29701.73
0.9447,0.0553	-29719.22
0.9812,0.0188	-29704.61
0.9813,0.0187	-29700.65
0.9671,0.0329	-29708.61
0.9914,0.0086	-29691.48
0.9668,0.0332	-29701.88
0.9437,0.0563	-29719.29
0.9841,0.0159	-29700.58
0.9824,0.0176	-29716.70
0.9698,0.0302	-29708.49
0.9923,0.0077	-29696.27
0.9667,0.0333	-29715.37
0.9511,0.0489	-29724.80
0.9827,0.0173	-29708.69
0.9850,0.0150	-29700.58
0.9754,0.0246	-29701.02
0.9908,0.0092	-29691.53
0.9742,0.0258	-29701.13
0.9553,0.0447	-29724.84
0.9866,0.0134	-29704.89
0.9861,0.0139	-29692.06
0.9806,0.0194	-29708.53
0.9875,0.0125	-29700.62
0.9686,0.0314	-29711.97
0.9529,0.0471	-29721.80
0.9864,0.0136	-29704.87
0.9838,0.0162	-29700.58
0.9787,0.0213	-29696.96
0.9856,0.0144	-29700.58
0.9704,0.0296	-29701.49
0.9552,0.0448	-29706.47
0.9856,0.0144	-29696.35
0.9861,0.0139	-29692.06
0.9773,0.0227	-29704.64
0.9868,0.0132	-29696.29
0.9698,0.0302	-29739.73
0.9575,0.0425	-29724.89
0.9884,0.0116	-29696.22
0.9840,0.0160	-29704.70
0.9718,0.0282	-29704.89
0.9825,0.0175	-29696.59
0.9802,0.0198	-29700.70
0.9600,0.0400	-29702.75
0.9854,0.0146	-29700.58
0.9791,0.0209	-29696.91
0.9685,0.0315	-29701.70
0.9828,0.0172	-29700.60
0.9815,0.0185	-29700.65
0.9521,0.0479	-29733.77
0.9827,0.0173	-29704.65
0.9764,0.0236	-29700.94
0.9761,0.0239	-29704.68
0.9789,0.0211	-29700.77
0.9805,0.0195	-29700.69
0.9437,0.0563	-29719.29
0.9855,0.0145	-29700.58
0.9821,0.0179	-29704.63
0.9766,0.0234	-29697.20
0.9828,0.0172	-29704.65
0.9808,0.0192	-29700.67
0.9533,0.0467	-29724.81
0.9871,0.0129	-29700.61
0.9809,0.0191	-29712.49
0.9787,0.0213	-29708.44
0.9814,0.0186	-29712.55
0.9805,0.0195	-29700.69
0.9457,0.0543	-29719.15
0.9847,0.0153	-29696.41
0.9791,0.0209	-29708.46
0.9698,0.0302	-29701.55
0.9816,0.0184	-29704.62
0.9765,0.0235	-29708.39
0.9411,0.0589	-29713.94
0.9847,0.0153	-29696.41
0.9787,0.0213	-29704.61
0.9696,0.0304	-29705.03
0.9786,0.0214	-29704.62
0.9748,0.0252	-29693.77
0.9402,0.0598	-29725.06
0.9859,0.0141	-29696.33
0.9810,0.0190	-29712.50
0.9636,0.0364	-29715.38
0.9804,0.0196	-29704.61
0.9751,0.0249	-29715.72
0.9440,0.0560	-29722.09
0.9856,0.0144	-29696.35
0.9774,0.0226	-29700.87
0.9671,0.0329	-29705.23
0.9836,0.0164	-29692.40
0.9805,0.0195	-29696.78
0.9562,0.0438	-29709.43
0.9865,0.0135	-29696.30
0.9791,0.0209	-29700.76
0.9693,0.0307	-29711.96
0.9763,0.0237	-29700.95
0.9778,0.0222	-29697.06
0.9675,0.0325	-29705.20
0.9895,0.0105	-29700.75
0.9743,0.0257	-29708.39
0.9676,0.0324	-29711.98
0.9741,0.0259	-29712.02
0.9797,0.0203	-29704.61
0.9715,0.0285	-29701.38
0.9904,0.0096	-29691.57
0.9734,0.0266	-29701.20
0.9745,0.0255	-29704.74
0.9763,0.0237	-29708.39
0.9852,0.0148	-29700.58
0.9743,0.0257	-29697.48
0.9913,0.0087	-29696.23
0.9692,0.0308	-29715.41
0.9753,0.0247	-29704.71
0.9744,0.0256	-29704.75
0.9836,0.0164	-29700.59
0.9802,0.0198	-29696.80
0.9919,0.0081	-29691.45
0.9770,0.0230	-29700.90
0.9835,0.0165	-29704.68
0.9732,0.0268	-29715.58
0.9863,0.0137	-29700.59
0.9790,0.0210	-29708.45
0.9899,0.0101	-29696.20
0.9735,0.0265	-29712.00
0.9819,0.0181	-29704.63
0.9757,0.0243	-29701.00
0.9870,0.0130	-29700.61
0.9798,0.0202	-29696.85
0.9924,0.0076	-29691.40
0.9713,0.0287	-29704.92
0.9864,0.0136	-29700.59
0.9734,0.0266	-29704.80
0.9883,0.0117	-29696.23
0.9788,0.0212	-29696.95
0.9906,0.0094	-29691.55
0.9728,0.0272	-29708.41
0.9870,0.0130	-29704.93
0.9696,0.0304	-29701.57
0.9870,0.0130	-29691.95
0.9735,0.0265	-29704.79
0.9932,0.0068	-29696.35
0.9663,0.0337	-29705.30
0.9873,0.0127	-29691.91
0.9622,0.0378	-29715.40
0.9823,0.0177	-29700.62
0.9733,0.0267	-29733.57
0.9934,0.0066	-29696.37
0.9583,0.0417	-29718.65
0.9857,0.0143	-29704.81
0.9627,0.0373	-29708.89
0.9859,0.0141	-29692.08
0.9688,0.0312	-29708.53
0.9929,0.0071	-29696.31
0.9580,0.0420	-29706.15
0.9838,0.0162	-29717.01
0.9704,0.0296	-29718.94
0.9849,0.0151	-29700.58
0.9641,0.0359	-29712.08
0.9938,0.0062	-29701.48
0.9572,0.0428	-29709.35
0.9852,0.0148	-29713.16
0.9615,0.0385	-29702.54
0.9850,0.0150	-29692.20
0.9676,0.0324	-29715.38
0.9941,0.0059	-29696.45
0.9640,0.0360	-29698.93
0.9843,0.0157	-29696.44
0.9616,0.0384	-29721.86
0.9831,0.0169	-29700.60
0.9633,0.0367	-29718.65
0.9936,0.0064	-29696.39
0.9565,0.0435	-29718.68
0.9820,0.0180	-29696.63
0.9571,0.0429	-29712.46
0.9810,0.0190	-29700.67
0.9757,0.0243	-29697.30
0.9948,0.0052	-29691.31
0.9564,0.0436	-29706.33
0.9809,0.0191	-29692.80
0.9567,0.0433	-29721.77
0.9780,0.0220	-29704.63
0.9712,0.0288	-29704.93
0.9946,0.0054	-29691.31
0.9612,0.0388	-29728.26
0.9813,0.0187	-29700.65
0.9583,0.0417	-29709.25
0.9779,0.0221	-29704.63
0.9718,0.0282	-29711.97
0.9941,0.0059	-29691.32
0.9597,0.0403	-29709.12
0.9814,0.0186	-29692.72
0.9362,0.0638	-29722.57
0.9819,0.0181	-29696.64
0.9709,0.0291	-29697.94
0.9962,0.0038	-29691.35
0.9621,0.0379	-29708.94
0.9805,0.0195	-29704.61
0.9473,0.0527	-29719.06
0.9842,0.0158	-29696.45
0.9744,0.0256	-29712.02
0.9963,0.0037	-29696.95
0.9641,0.0359	-29728.54
0.9830,0.0170	-29704.66
0.9395,0.0605	-29719.60
0.9819,0.0181	-29700.63
0.9780,0.0220	-29697.04
0.9962,0.0038	-29691.35
0.9610,0.0390	-29712.23
0.9839,0.0161	-29700.58
0.9321,0.0679	-29725.51
0.9823,0.0177	-29704.63
0.9790,0.0210	-29700.77
0.9963,0.0037	-29696.96
0.9557,0.0443	-29718.70
0.9862,0.0138	-29692.04
0.9438,0.0562	-29727.75
0.9767,0.0233	-29700.93
0.9793,0.0207	-29708.47
0.9963,0.0037	-29696.96
0.9548,0.0452	-29709.57
0.9850,0.0150	-29700.58
0.9246,0.0754	-29733.61
0.9775,0.0225	-29700.86
0.9809,0.0191	-29696.74
0.9964,0.0036	-29696.98
0.9440,0.0560	-29710.79
0.9816,0.0184	-29700.64
0.9306,0.0694	-29723.02
0.9813,0.0187	-29696.69
0.9766,0.0234	-29704.66
0.9969,0.0031	-29691.42
0.9413,0.0587	-29722.24
0.9798,0.0202	-29696.84
0.9445,0.0555	-29719.23
0.9803,0.0197	-29692.89
0.9728,0.0272	-29697.68
0.9961,0.0039	-29691.34
0.9458,0.0542	-29704.85
0.9817,0.0183	-29704.62
0.9532,0.0468	-29715.77
0.9766,0.0234	-29693.46
0.9762,0.0238	-29700.96
0.9961,0.0039	-29691.34
0.9384,0.0616	-29714.25
0.9812,0.0188	-29704.61
0.9571,0.0429	-29709.36
0.9724,0.0276	-29701.29
0.9793,0.0207	-29693.03
0.9963,0.0037	-29691.35
0.9367,0.0633	-29730.62
0.9818,0.0182	-29696.65
0.9624,0.0376	-29715.40
0.9673,0.0327	-29711.99
0.9753,0.0247	-29693.68
0.9966,0.0034	-29697.05
0.9382,0.0618	-29722.44
0.9752,0.0248	-29708.38
0.9612,0.0388	-29715.42
0.9619,0.0381	-29718.64
0.9648,0.0352	-29712.06
0.9960,0.0040	-29691.34
0.9437,0.0563	-29719.29
0.9756,0.0244	-29712.07
0.9633,0.0367	-29725.19
0.9633,0.0367	-29712.12
0.9694,0.0306	-29708.51
0.9964,0.0036	-29691.36
0.9473,0.0527	-29724.84
0.9698,0.0302	-29698.08
0.9693,0.0307	-29722.32
0.9656,0.0344	-29712.03
0.9697,0.0303	-29705.03
0.9949,0.0051	-29691.31
0.9420,0.0580	-29727.77
0.9659,0.0341	-29715.37
0.9709,0.0291	-29704.95
0.9760,0.0240	-29697.27
0.9661,0.0339	-29705.32
0.9927,0.0073	-29691.39
0.9308,0.0692	-29728.20
0.9649,0.0351	-29708.74
0.9691,0.0309	-29701.62
0.9791,0.0209	-29696.92
0.9618,0.0382	-29708.96
0.9938,0.0062	-29691.33
0.9319,0.0681	-29717.68
0.9639,0.0361	-29715.38
0.9646,0.0354	-29702.15
0.9805,0.0195	-29704.61
0.9535,0.0465	-29712.73
0.9930,0.0070	-29691.37
0.9255,0.0745	-29728.53
0.9692,0.0308	-29705.06
0.9726,0.0274	-29697.70
0.9811,0.0189	-29696.71
0.9575,0.0425	-29706.21
0.9949,0.0051	-29691.31
0.9184,0.0816	-29724.24
0.9652,0.0348	-29718.69
0.9710,0.0290	-29708.45
0.9770,0.0230	-29697.15
0.9600,0.0400	-29712.28
0.9954,0.0046	-29702.09
0.9144,0.0856	-29729.44
0.9599,0.0401	-29709.11
0.9725,0.0275	-29719.11
0.9773,0.0227	-29712.17
0.9583,0.0417	-29706.11
0.9955,0.0045	-29691.32
0.9168,0.0832	-29719.61
0.9551,0.0449	-29706.49
0.9751,0.0249	-29708.38
0.9710,0.0290	-29708.45
0.9695,0.0305	-29711.96
0.9936,0.0064	-29691.34
0.9219,0.0781	-29726.33
0.9655,0.0345	-29698.71
0.9770,0.0230	-29704.65
0.9707,0.0293	-29704.96
0.9740,0.0260	-29712.01
0.9920,0.0080	-29696.25
0.9049,0.0951	-29739.42
0.9587,0.0413	-29715.50
0.9801,0.0199	-29700.71
0.9700,0.0300	-29708.48
0.9762,0.0238	-29708.39
0.9943,0.0057	-29691.32
0.9013,0.0987	-29735.24
0.9698,0.0302	-29705.02
0.9795,0.0205	-29700.74
0.9636,0.0364	-29721.93
0.9695,0.0305	-29711.96
0.9952,0.0048	-29696.64
0.9056,0.0944	-29737.12
0.9748,0.0252	-29697.42
0.9787,0.0213	-29704.61
0.9539,0.0461	-29706.64
0.9669,0.0331	-29712.00
0.9948,0.0052	-29691.31
0.9222,0.0778	-29726.30
0.9723,0.0277	-29711.97
0.9795,0.0205	-29708.47
0.9600,0.0400	-29709.10
0.9704,0.0296	-29704.98
0.9942,0.0058	-29691.32
0.9374,0.0626	-29722.49
0.9727,0.0273	-29697.69
0.9839,0.0161	-29692.35
0.9668,0.0332	-29708.63
0.9686,0.0314	-29708.54
0.9950,0.0050	-29696.61
0.9525,0.0475	-29718.80
0.9744,0.0256	-29708.39
0.9835,0.0165	-29692.42
0.9620,0.0380	-29715.41
0.9726,0.0274	-29701.27
0.9944,0.0056	-29691.32
0.9436,0.0564	-29724.93
0.9716,0.0284	-29704.90
0.9839,0.0161	-29692.36
0.9578,0.0422	-29715.54
0.9698,0.0302	-29701.56
0.9942,0.0058	-29691.32
0.9372,0.0628	-29736.02
0.9642,0.0358	-29708.79
0.9858,0.0142	-29700.58
0.9601,0.0399	-29709.09
0.9718,0.0282	-29719.05
0.9940,0.0060	-29696.43
0.9373,0.0627	-29727.90
0.9703,0.0297	-29698.01
0.9839,0.0161	-29704.70
0.9547,0.0453	-29703.49
0.9656,0.0344	-29698.69
0.9946,0.0054	-29691.31
0.9359,0.0641	-29719.92
0.9702,0.0298	-29704.99
0.9797,0.0203	-29700.73
0.9549,0.0451	-29715.67
0.9667,0.0333	-29712.00
0.9942,0.0058	-29691.32
0.9406,0.0594	-29730.57
0.9653,0.0347	-29708.72
0.9811,0.0189	-29704.61
0.9496,0.0504	-29716.00
0.9608,0.0392	-29721.83
0.9942,0.0058	-29696.46
0.9319,0.0681	-29730.76
0.9627,0.0373	-29715.39
0.9817,0.0183	-29696.66
0.9541,0.0459	-29703.58
0.9558,0.0442	-29703.33
0.9944,0.0056	-29696.50
0.9143,0.0857	-29729.45
0.9572,0.0428	-29715.56
0.9769,0.0231	-29693.42
0.9631,0.0369	-29712.12
0.9596,0.0404	-29712.30
0.9945,0.0055	-29691.31
0.8986,0.1014	-29742.05
0.9533,0.0467	-29718.77
0.9849,0.0151	-29692.22
0.9595,0.0405	-29705.97
0.9594,0.0406	-29705.99
0.9948,0.0052	-29691.31
0.9238,0.0762	-29731.15
0.9506,0.0494	-29704.11
0.9802,0.0198	-29716.31
0.9658,0.0342	-29718.71
0.9542,0.0458	-29721.78
0.9934,0.0066	-29701.38
0.9282,0.0718	-29728.36
0.9474,0.0526	-29716.16
0.9790,0.0210	-29700.77
0.9635,0.0365	-29708.83
0.9592,0.0408	-29706.01
0.9946,0.0054	-29701.74
0.9401,0.0599	-29736.08
0.9565,0.0435	-29721.77
0.9755,0.0245	-29701.02
0.9636,0.0364	-29712.10
0.9668,0.0332	-29715.37
0.9937,0.0063	-29691.34
0.9485,0.0515	-29710.25
0.9462,0.0538	-29707.66
0.9722,0.0278	-29711.97
0.9673,0.0327	-29695.06
0.9708,0.0292	-29708.46
0.9955,0.0045	-29691.32
0.9386,0.0614	-29714.22
0.9514,0.0486	-29718.85
0.9725,0.0275	-29701.28
0.9716,0.0284	-29715.50
0.9694,0.0306	-29698.14
0.9959,0.0041	-29691.33
0.9348,0.0652	-29728.01
0.9526,0.0474	-29718.80
0.9752,0.0248	-29704.71
0.9700,0.0300	-29705.01
0.9687,0.0313	-29698.23
0.9964,0.0036	-29691.36
0.9437,0.0563	-29730.57
0.9501,0.0499	-29718.91
0.9771,0.0229	-29697.14
0.9701,0.0299	-29698.04
0.9692,0.0308	-29725.76
0.9961,0.0039	-29702.41
0.9395,0.0605	-29705.89
0.9573,0.0427	-29718.66
0.9763,0.0237	-29693.52
0.9681,0.0319	-29708.56
0.9711,0.0289	-29694.38
0.9967,0.0033	-29691.39
0.9311,0.0689	-29738.60
0.9610,0.0390	-29702.61
0.9788,0.0212	-29696.95
0.9574,0.0426	-29706.22
0.9716,0.0284	-29708.43
0.9966,0.0034	-29691.38
0.9321,0.0679	-29717.65
0.9640,0.0360	-29705.51
0.9803,0.0197	-29700.70
0.9576,0.0424	-29715.54
0.9707,0.0293	-29697.96
0.9962,0.0038	-29691.35
0.9239,0.0761	-29738.63
0.9644,0.0356	-29708.77
0.9789,0.0211	-29696.94
0.9583,0.0417	-29702.98
0.9687,0.0313	-29701.67
0.9966,0.0034	-29691.38
0.9148,0.0852	-29727.02
0.9651,0.0349	-29722.01
0.9796,0.0204	-29696.86
0.9559,0.0441	-29709.46
0.9671,0.0329	-29701.85
0.9963,0.0037	-29691.36
0.9123,0.0877	-29731.98
0.9542,0.0458	-29721.78
0.9725,0.0275	-29697.72
0.9608,0.0392	-29715.43
0.9616,0.0384	-29715.41
0.9955,0.0045	-29691.32
0.9171,0.0829	-29712.36
0.9647,0.0353	-29718.68
0.9715,0.0285	-29704.91
0.9623,0.0377	-29708.92
0.9443,0.0557	-29722.08
0.9950,0.0050	-29696.60
0.9326,0.0674	-29720.22
0.9657,0.0343	-29718.71
0.9757,0.0243	-29704.69
0.9700,0.0300	-29708.48
0.9416,0.0584	-29702.75
0.9945,0.0055	-29691.31
0.9259,0.0741	-29715.88
0.9668,0.0332	-29708.63
0.9808,0.0192	-29704.61
0.9694,0.0306	-29701.60
0.9546,0.0454	-29709.60
0.9938,0.0062	-29696.41
0.9300,0.0700	-29728.25
0.9601,0.0399	-29702.73
0.9841,0.0159	-29708.83
0.9724,0.0276	-29697.73
0.9538,0.0462	-29715.73
0.9940,0.0060	-29691.33
0.9156,0.0844	-29738.86
0.9666,0.0334	-29698.54
0.9825,0.0175	-29692.56
0.9777,0.0223	-29704.63
0.9529,0.0471	-29715.78
0.9940,0.0060	-29691.33
0.9237,0.0763	-29731.15
0.9602,0.0398	-29709.08
0.9838,0.0162	-29696.48
0.9786,0.0214	-29704.62
0.9627,0.0373	-29721.89
0.9951,0.0049	-29691.31
0.9312,0.0688	-29712.54
0.9584,0.0416	-29706.10
0.9821,0.0179	-29696.62
0.9771,0.0229	-29700.89
0.9574,0.0426	-29709.33
0.9956,0.0044	-29696.75
0.9446,0.0554	-29707.89
0.9556,0.0444	-29715.63
0.9860,0.0140	-29696.33
0.9748,0.0252	-29701.07
0.9629,0.0371	-29699.10
0.9950,0.0050	-29691.31
0.9363,0.0637	-29719.88
0.9527,0.0473	-29712.79
0.9893,0.0107	-29696.21
0.9784,0.0216	-29708.43
0.9597,0.0403	-29718.64
0.9940,0.0060	-29691.33
0.9415,0.0585	-29713.90
0.9541,0.0459	-29715.71
0.9882,0.0118	-29700.66
0.9802,0.0198	-29700.71
0.9646,0.0354	-29718.68
0.9949,0.0051	-29691.31
0.9425,0.0575	-29716.58
0.9483,0.0517	-29724.82
0.9848,0.0152	-29708.92
0.9774,0.0226	-29697.11
0.9702,0.0298	-29708.48
0.9943,0.0057	-29696.48
0.9462,0.0538	-29724.86
0.9573,0.0427	-29712.45
0.9827,0.0173	-29704.65
0.9803,0.0197	-29696.79
0.9656,0.0344	-29712.03
0.9925,0.0075	-29691.40
0.9365,0.0635	-29722.56
0.9577,0.0423	-29712.42
0.9853,0.0147	-29696.37
0.9821,0.0179	-29704.63
0.9616,0.0384	-29705.75
0.9932,0.0068	-29696.34
0.9409,0.0591	-29711.19
0.9509,0.0491	-29718.87
0.9849,0.0151	-29692.23
0.9826,0.0174	-29696.58
0.9638,0.0362	-29718.66
0.9924,0.0076	-29696.28
0.9426,0.0574	-29738.96
0.9503,0.0497	-29718.90
0.9859,0.0141	-29704.83
0.9809,0.0191	-29708.55
0.9640,0.0360	-29705.51
0.9947,0.0053	-29691.31
0.9341,0.0659	-29730.69
0.9492,0.0508	-29718.96
0.9843,0.0157	-29700.58
0.9761,0.0239	-29700.97
0.9665,0.0335	-29712.01
0.9949,0.0051	-29691.31
0.9414,0.0586	-29719.45
0.9527,0.0473	-29718.80
0.9857,0.0143	-29700.58
0.9738,0.0262	-29704.78
0.9727,0.0273	-29701.26
0.9948,0.0052	-29696.57
0.9509,0.0491	-29733.69
0.9516,0.0484	-29718.84
0.9890,0.0110	-29691.71
0.9740,0.0260	-29697.52
0.9658,0.0342	-29705.35
0.9950,0.0050	-29691.31
0.9496,0.0504	-29718.93
0.9493,0.0507	-29704.31
0.9912,0.0088	-29700.95
0.9757,0.0243	-29704.69
0.9670,0.0330	-29712.00
0.9960,0.0040	-29696.85
0.9528,0.0472	-29727.81
0.9470,0.0530	-29710.42
0.9926,0.0074	-29691.39
0.9686,0.0314	-29725.68
0.9620,0.0380	-29702.47
0.9965,0.0035	-29697.01
0.9458,0.0542	-29722.01
0.9430,0.0570	-29722.14
0.9944,0.0056	-29691.32
0.9707,0.0293	-29715.46
0.9585,0.0415	-29721.79
0.9962,0.0038	-29696.91
0.9504,0.0496	-29721.85
0.9449,0.0551	-29722.05
0.9934,0.0066	-29691.35
0.9742,0.0258	-29712.02
0.9529,0.0471	-29721.80
0.9954,0.0046	-29696.69
0.9461,0.0539	-29710.54
0.9444,0.0556	-29716.41
0.9933,0.0067	-29691.35
0.9661,0.0339	-29705.31
0.9496,0.0504	-29724.81
0.9965,0.0035	-29691.37
0.9407,0.0593	-29716.74
0.9466,0.0534	-29719.10
0.9938,0.0062	-29696.41
0.9739,0.0261	-29704.77
0.9497,0.0503	-29704.24
0.9961,0.0039	-29691.34
0.9481,0.0519	-29716.11
0.9593,0.0407	-29712.32
0.9924,0.0076	-29696.28
0.9693,0.0307	-29715.41
0.9503,0.0497	-29713.00
0.9953,0.0047	-29696.68
0.9478,0.0522	-29713.24
0.9595,0.0405	-29712.31
0.9933,0.0067	-29696.35
0.9670,0.0330	-29718.75
0.9516,0.0484	-29721.82
0.9954,0.0046	-29691.31
0.9397,0.0603	-29727.83
0.9533,0.0467	-29727.82
0.9933,0.0067	-29691.35
0.9677,0.0323	-29694.99
0.9505,0.0495	-29715.94
0.9952,0.0048	-29696.65
0.9456,0.0544	-29724.87
0.9483,0.0517	-29727.73
0.9926,0.0074	-29696.29
0.9709,0.0291	-29704.95
0.9515,0.0485	-29721.82
0.9960,0.0040	-29691.33
0.9583,0.0417	-29718.65
0.9402,0.0598	-29736.08
0.9914,0.0086	-29700.98
0.9720,0.0280	-29697.77
0.9458,0.0542	-29716.29
0.9954,0.0046	-29691.31
0.9576,0.0424	-29706.20
0.9404,0.0596	-29722.29
0.9920,0.0080	-29691.43
0.9641,0.0359	-29712.08
0.9279,0.0721	-29725.82
0.9964,0.0036	-29702.62
0.9570,0.0430	-29727.98
0.9323,0.0677	-29717.63
0.9915,0.0085	-29696.23
0.9734,0.0266	-29708.40
0.9405,0.0595	-29730.57
0.9964,0.0036	-29691.36
0.9628,0.0372	-29712.14
0.9228,0.0772	-29718.80
0.9901,0.0099	-29700.81
0.9733,0.0267	-29711.99
0.9416,0.0584	-29727.78
0.9957,0.0043	-29696.77
0.9525,0.0475	-29709.81
0.9252,0.0748	-29728.55
0.9884,0.0116	-29700.67
0.9715,0.0285	-29701.38
0.9482,0.0518	-29713.19
0.9953,0.0047	-29691.31
0.9606,0.0394	-29702.66
0.9319,0.0681	-29741.22
0.9870,0.0130	-29700.61
0.9705,0.0295	-29708.47
0.9472,0.0528	-29707.52
0.9931,0.0069	-29701.31
0.9551,0.0449	-29730.94
0.9383,0.0617	-29727.87
0.9869,0.0131	-29700.60
0.9763,0.0237	-29712.11
0.9459,0.0541	-29719.14
0.9927,0.0073	-29696.30
0.9641,0.0359	-29708.79
0.9353,0.0647	-29730.65
0.9859,0.0141	-29709.08
0.9728,0.0272	-29704.83
0.9424,0.0576	-29719.38
0.9919,0.0081	-29696.25
0.9620,0.0380	-29718.64
0.9310,0.0690	-29720.38
0.9892,0.0108	-29700.73
0.9751,0.0249	-29697.38
0.9503,0.0497	-29707.09
0.9903,0.0097	-29700.83
0.9688,0.0312	-29705.10
0.9350,0.0650	-29727.99
0.9876,0.0124	-29691.87
0.9799,0.0201	-29712.38
0.9612,0.0388	-29705.79
0.9916,0.0084	-29696.24
0.9735,0.0265	-29715.60
0.9414,0.0586	-29725.01
0.9854,0.0146	-29692.16
0.9755,0.0245	-29708.38
0.9660,0.0340	-29722.07
0.9923,0.0077	-29696.27
0.9757,0.0243	-29697.31
0.9474,0.0526	-29727.73
0.9805,0.0195	-29704.61
0.9732,0.0268	-29701.21
0.9593,0.0407	-29702.84
0.9927,0.0073	-29706.13
0.9799,0.0201	-29704.61
0.9457,0.0543	-29716.30
0.9836,0.0164	-29700.59
0.9736,0.0264	-29712.00
0.9580,0.0420	-29712.40
0.9941,0.0059	-29701.58
0.9794,0.0206	-29712.33
0.9502,0.0498	-29710.06
0.9823,0.0177	-29704.64
0.9691,0.0309	-29705.07
0.9548,0.0452	-29712.63
0.9947,0.0053	-29696.55
0.9777,0.0223	-29704.63
0.9586,0.0414	-29702.94
0.9818,0.0182	-29704.62
0.9708,0.0292	-29708.46
0.9601,0.0399	-29715.45
0.9946,0.0054	-29691.31
0.9745,0.0255	-29701.10
0.9636,0.0364	-29712.10
0.9854,0.0146	-29692.15
0.9770,0.0230	-29704.65
0.9583,0.0417	-29706.11
0.9949,0.0051	-29691.31
0.9764,0.0236	-29715.83
0.9672,0.0328	-29711.99
0.9823,0.0177	-29716.68
0.9672,0.0328	-29698.46
0.9525,0.0475	-29721.80
0.9940,0.0060	-29696.44
0.9796,0.0204	-29704.61
0.9632,0.0368	-29715.38
0.9822,0.0178	-29696.61
0.9657,0.0343	-29705.35
0.9525,0.0475	-29709.80
0.9926,0.0074	-29691.39
0.9768,0.0232	-29715.88
0.9661,0.0339	-29698.62
0.9843,0.0157	-29704.72
0.9644,0.0356	-29725.27
0.9551,0.0449	-29706.49
0.9935,0.0065	-29701.40
0.9728,0.0272	-29704.83
0.9615,0.0385	-29718.63
0.9829,0.0171	-29712.76
0.9639,0.0361	-29712.09
0.9471,0.0529	-29719.07
0.9938,0.0062	-29696.41
0.9717,0.0283	-29708.43
0.9610,0.0390	-29705.82
0.9836,0.0164	-29704.68
0.9682,0.0318	-29715.39
0.9446,0.0554	-29713.56
0.9937,0.0063	-29696.40
0.9727,0.0273	-29708.41
0.9708,0.0292	-29701.45
0.9839,0.0161	-29704.69
0.9706,0.0294	-29711.96
0.9424,0.0576	-29713.79
0.9924,0.0076	-29691.41
0.9687,0.0313	-29705.10
0.9749,0.0251	-29708.38
0.9837,0.0163	-29704.69
0.9687,0.0313	-29705.10
0.9555,0.0445	-29706.44
0.9934,0.0066	-29696.37
0.9708,0.0292	-29704.95
0.9592,0.0408	-29715.48
0.9829,0.0171	-29704.65
0.9707,0.0293	-29708.46
0.9512,0.0488	-29709.95
0.9929,0.0071	-29691.37
0.9762,0.0238	-29715.82
0.9590,0.0410	-29718.64
0.9844,0.0156	-29713.01
0.9726,0.0274	-29701.27
0.9587,0.0413	-29718.64
0.9947,0.0053	-29691.31
0.9718,0.0282	-29708.43
0.9447,0.0553	-29722.06
0.9870,0.0130	-29696.28
0.9762,0.0238	-29693.53
0.9483,0.0517	-29716.10
0.9948,0.0052	-29691.31
0.9741,0.0259	-29704.76
0.9482,0.0518	-29716.10
0.9880,0.0120	-29705.06
0.9779,0.0221	-29697.04
0.9594,0.0406	-29715.47
0.9957,0.0043	-29696.77
0.9769,0.0231	-29704.65
0.9401,0.0599	-29719.56
0.9888,0.0112	-29691.74
0.9830,0.0170	-29692.48
0.9579,0.0421	-29712.41
0.9947,0.0053	-29696.55
0.9732,0.0268	-29701.21
0.9318,0.0682	-29733.38
0.9862,0.0138	-29713.39
0.9873,0.0127	-29700.62
0.9535,0.0465	-29703.67
0.9946,0.0054	-29691.31
0.9687,0.0313	-29708.53
0.9138,0.0862	-29731.85
0.9856,0.0144	-29700.58
0.9850,0.0150	-29717.31
0.9552,0.0448	-29706.47
0.9956,0.0044	-29691.32
0.9702,0.0298	-29701.51
0.9273,0.0727	-29723.32
0.9828,0.0172	-29696.56
0.9861,0.0139	-29696.32
0.9443,0.0557	-29719.25
0.9956,0.0044	-29696.75
0.9655,0.0345	-29708.71
0.9289,0.0711	-29730.88
0.9854,0.0146	-29696.37
0.9818,0.0182	-29696.65
0.9445,0.0555	-29719.24
0.9961,0.0039	-29691.34
0.9710,0.0290	-29694.41
0.9391,0.0609	-29733.32
0.9853,0.0147	-29708.98
0.9847,0.0153	-29700.58
0.9430,0.0570	-29736.18
0.9972,0.0028	-29697.31
0.9646,0.0354	-29712.07
0.9340,0.0660	-29722.74
0.9811,0.0189	-29700.66
0.9797,0.0203	-29700.73
0.9540,0.0460	-29718.75
0.9976,0.0024	-29691.54
0.9646,0.0354	-29702.15
0.9301,0.0699	-29730.83
0.9815,0.0185	-29700.65
0.9759,0.0241	-29704.68
0.9578,0.0422	-29724.90
0.9977,0.0023	-29691.55
0.9704,0.0296	-29718.94
0.9363,0.0637	-29730.63
0.9860,0.0140	-29709.09
0.9724,0.0276	-29719.10
0.9459,0.0541	-29724.87
0.9976,0.0024	-29703.60
0.9612,0.0388	-29715.42
0.9345,0.0655	-29712.07
0.9845,0.0155	-29704.73
0.9717,0.0283	-29711.97
0.9489,0.0511	-29710.21
0.9974,0.0026	-29691.48
0.9670,0.0330	-29739.02
0.9250,0.0750	-29721.03
0.9863,0.0137	-29696.31
0.9736,0.0264	-29704.79
0.9437,0.0563	-29719.29
0.9975,0.0025	-29691.51
0.9765,0.0235	-29704.66
0.9349,0.0651	-29728.00
0.9873,0.0127	-29696.27
0.9713,0.0287	-29711.96
0.9497,0.0503	-29715.99
0.9977,0.0023	-29691.56
0.9806,0.0194	-29700.69
0.9252,0.0748	-29718.49
0.9872,0.0128	-29696.27
0.9747,0.0253	-29712.03
0.9491,0.0509	-29724.81
0.9971,0.0029	-29697.31
0.9795,0.0205	-29704.61
0.9179,0.0821	-29736.36
0.9837,0.0163	-29696.49
0.9754,0.0246	-29697.35
0.9442,0.0558	-29716.42
0.9974,0.0026	-29691.50
0.9836,0.0164	-29708.77
0.9103,0.0897	-29732.15
0.9828,0.0172	-29708.70
0.9793,0.0207	-29696.90
0.9416,0.0584	-29711.10
0.9978,0.0022	-29697.67
0.9874,0.0126	-29696.26
0.9149,0.0851	-29746.01
0.9804,0.0196	-29704.61
0.9802,0.0198	-29704.61
0.9416,0.0584	-29716.66
0.9974,0.0026	-29697.44
0.9859,0.0141	-29696.33
0.9494,0.0506	-29716.01
0.9810,0.0190	-29696.72
0.9814,0.0186	-29692.72
0.9511,0.0489	-29721.83
0.9974,0.0026	-29691.49
0.9866,0.0134	-29696.30
0.9483,0.0517	-29713.18
0.9830,0.0170	-29700.60
0.9840,0.0160	-29696.47
0.9486,0.0514	-29724.82
0.9975,0.0025	-29691.51
0.9874,0.0126	-29700.62
0.9500,0.0500	-29730.69
0.9802,0.0198	-29704.61
0.9790,0.0210	-29696.93
0.9544,0.0456	-29709.61
0.9976,0.0024	-29691.53
0.9866,0.0134	-29696.30
0.9614,0.0386	-29721.85
0.9791,0.0209	-29716.15
0.9848,0.0152	-29700.58
0.9415,0.0585	-29713.90
0.9980,0.0020	-29697.81
0.9883,0.0117	-29696.23
0.9574,0.0426	-29709.33
0.9803,0.0197	-29696.79
0.9831,0.0169	-29696.53
0.9395,0.0605	-29711.38
0.9981,0.0019	-29691.67
0.9876,0.0124	-29700.63
0.9496,0.0504	-29716.00
0.9827,0.0173	-29696.56
0.9811,0.0189	-29700.66
0.9310,0.0690	-29728.19
0.9983,0.0017	-29691.74
0.9886,0.0114	-29696.22
0.9575,0.0425	-29718.66
0.9850,0.0150	-29700.58
0.9827,0.0173	-29696.57
0.9252,0.0748	-29721.01
0.9980,0.0020	-29691.63
0.9874,0.0126	-29696.26
0.9583,0.0417	-29712.38
0.9802,0.0198	-29692.90
0.9848,0.0152	-29704.74
0.9420,0.0580	-29719.41
0.9980,0.0020	-29691.64
0.9873,0.0127	-29696.27
0.9534,0.0466	-29715.76
0.9799,0.0201	-29712.38
0.9852,0.0148	-29704.77
0.9510,0.0490	-29715.90
0.9985,0.0015	-29691.83
0.9881,0.0119	-29696.24
0.9595,0.0405	-29712.31
0.9781,0.0219	-29704.62
0.9850,0.0150	-29700.58
0.9483,0.0517	-29707.37
0.9983,0.0017	-29691.75
0.9867,0.0133	-29696.29
0.9571,0.0429	-29718.67
0.9782,0.0218	-29697.01
0.9885,0.0115	-29696.22
0.9378,0.0622	-29725.17
0.9986,0.0014	-29691.87
0.9872,0.0128	-29696.27
0.9724,0.0276	-29701.29
0.9758,0.0242	-29704.69
0.9867,0.0133	-29696.29
0.9423,0.0577	-29713.81
0.9984,0.0016	-29691.77
0.9853,0.0147	-29692.17
0.9735,0.0265	-29701.19
0.9768,0.0232	-29712.13
0.9856,0.0144	-29704.80
0.9564,0.0436	-29709.42
0.9985,0.0015	-29691.83
0.9891,0.0109	-29709.73
0.9719,0.0281	-29697.79
0.9802,0.0198	-29708.51
0.9863,0.0137	-29692.04
0.9557,0.0443	-29706.42
0.9987,0.0013	-29691.93
0.9876,0.0124	-29691.87
0.9611,0.0389	-29699.39
0.9832,0.0168	-29708.74
0.9845,0.0155	-29696.43
0.9612,0.0388	-29705.79
0.9986,0.0014	-29691.88
0.9857,0.0143	-29700.58
0.9585,0.0415	-29718.65
0.9824,0.0176	-29700.61
0.9845,0.0155	-29696.42
0.9701,0.0299	-29715.44
0.9988,0.0012	-29691.97
0.9862,0.0138	-29700.59
0.9543,0.0457	-29721.78
0.9833,0.0167	-29692.44
0.9834,0.0166	-29700.59
0.9731,0.0269	-29722.75
0.9982,0.0018	-29691.72
0.9863,0.0137	-29700.59
0.9637,0.0363	-29715.38
0.9828,0.0172	-29712.74
0.9798,0.0202	-29700.72
0.9702,0.0298	-29715.44
0.9983,0.0017	-29691.75
0.9867,0.0133	-29696.29
0.9604,0.0396	-29718.63
0.9850,0.0150	-29708.95
0.9796,0.0204	-29700.73
0.9632,0.0368	-29702.33
0.9985,0.0015	-29691.84
0.9880,0.0120	-29700.65
0.9564,0.0436	-29712.51
0.9851,0.0149	-29696.38
0.9760,0.0240	-29700.98
0.9652,0.0348	-29712.05
0.9987,0.0013	-29691.94
0.9855,0.0145	-29704.80
0.9496,0.0504	-29707.19
0.9820,0.0180	-29712.62
0.9756,0.0244	-29701.01
0.9650,0.0350	-29705.41
0.9989,0.0011	-29692.05
0.9888,0.0112	-29696.22
0.9471,0.0529	-29707.52
0.9832,0.0168	-29704.67
0.9775,0.0225	-29700.87
0.9726,0.0274	-29704.84
0.9987,0.0013	-29691.96
0.9909,0.0091	-29691.53
0.9413,0.0587	-29727.79
0.9849,0.0151	-29692.21
0.9739,0.0261	-29701.16
0.9744,0.0256	-29712.02
0.9987,0.0013	-29691.94
0.9867,0.0133	-29691.99
0.9432,0.0568	-29722.13
0.9870,0.0130	-29696.28
0.9689,0.0311	-29705.09
0.9731,0.0269	-29708.40
0.9986,0.0014	-29691.88
0.9884,0.0116	-29691.79
0.9406,0.0594	-29722.28
0.9911,0.0089	-29691.51
0.9644,0.0356	-29712.07
0.9735,0.0265	-29708.40
0.9978,0.0022	-29691.59
0.9883,0.0117	-29700.67
0.9412,0.0588	-29722.25
0.9922,0.0078	-29701.11
0.9646,0.0354	-29708.76
0.9762,0.0238	-29715.82
0.9979,0.0021	-29691.62
0.9880,0.0120	-29696.24
0.9351,0.0649	-29717.31
0.9892,0.0108	-29700.73
0.9686,0.0314	-29705.11
0.9795,0.0205	-29712.34
0.9981,0.0019	-29697.96
0.9888,0.0112	-29691.74
0.9349,0.0651	-29714.68
0.9864,0.0136	-29700.59
0.9710,0.0290	-29708.45
0.9762,0.0238	-29693.54
0.9981,0.0019	-29691.66
0.9875,0.0125	-29704.99
0.9331,0.0669	-29728.08
0.9833,0.0167	-29696.52
0.9752,0.0248	-29708.38
0.9709,0.0291	-29711.96
0.9980,0.0020	-29691.63
0.9865,0.0135	-29709.18
0.9493,0.0507	-29721.88
0.9807,0.0193	-29700.68
0.9759,0.0241	-29704.68
0.9759,0.0241	-29704.68
0.9982,0.0018	-29691.69
0.9860,0.0140	-29700.58
0.9335,0.0665	-29730.70
0.9782,0.0218	-29719.84
0.9752,0.0248	-29712.06
0.9743,0.0257	-29697.48
0.9986,0.0014	-29691.86
0.9841,0.0159	-29696.45
0.9465,0.0535	-29713.36
0.9809,0.0191	-29700.67
0.9728,0.0272	-29708.41
0.9751,0.0249	-29697.37
0.9989,0.0011	-29698.89
0.9833,0.0167	-29708.75
0.9528,0.0472	-29709.78
0.9824,0.0176	-29696.59
0.9753,0.0247	-29697.36
0.9703,0.0297	-29698.01
0.9990,0.0010	-29692.13
0.9806,0.0194	-29708.53
0.9592,0.0408	-29699.70
0.9780,0.0220	-29697.03
0.9739,0.0261	-29697.53
0.9784,0.0216	-29700.81
0.9991,0.0009	-29692.25
0.9767,0.0233	-29704.66
0.9571,0.0429	-29718.67
0.9796,0.0204	-29708.48
0.9641,0.0359	-29702.21
0.9828,0.0172	-29704.65
0.9990,0.0010	-29698.96
0.9737,0.0263	-29712.00
0.9583,0.0417	-29709.25
0.9816,0.0184	-29704.62
0.9652,0.0348	-29712.04
0.9832,0.0168	-29700.60
0.9989,0.0011	-29705.68
0.9780,0.0220	-29708.42
0.9659,0.0341	-29698.64
0.9815,0.0185	-29700.64
0.9615,0.0385	-29708.98
0.9804,0.0196	-29704.61
0.9990,0.0010	-29692.13
0.9754,0.0246	-29712.07
0.9702,0.0298	-29701.51
0.9810,0.0190	-29712.50
0.9504,0.0496	-29715.95
0.9829,0.0171	-29696.55
0.9989,0.0011	-29692.07
0.9770,0.0230	-29700.90
0.9704,0.0296	-29704.98
0.9858,0.0142	-29692.10
0.9577,0.0423	-29715.54
0.9853,0.0147	-29708.99
0.9989,0.0011	-29692.09
0.9778,0.0222	-29715.99
0.9743,0.0257	-29693.84
0.9850,0.0150	-29700.58
0.9650,0.0350	-29702.10
0.9838,0.0162	-29692.36
0.9991,0.0009	-29692.25
0.9769,0.0231	-29708.40
0.9725,0.0275	-29711.98
0.9862,0.0138	-29700.59
0.9598,0.0402	-29712.29
0.9837,0.0163	-29708.78
0.9991,0.0009	-29699.30
0.9762,0.0238	-29697.25
0.9733,0.0267	-29708.40
0.9819,0.0181	-29696.63
0.9612,0.0388	-29712.21
0.9825,0.0175	-29696.58
0.9991,0.0009	-29692.19
0.9772,0.0228	-29700.89
0.9767,0.0233	-29700.92
0.9793,0.0207	-29693.04
0.9617,0.0383	-29725.08
0.9854,0.0146	-29713.22
0.9991,0.0009	-29692.22
0.9809,0.0191	-29696.73
0.9785,0.0215	-29712.25
0.9802,0.0198	-29700.70
0.9591,0.0409	-29709.18
0.9853,0.0147	-29696.37
0.9991,0.0009	-29692.26
0.9799,0.0201	-29696.83
0.9705,0.0295	-29722.44
0.9851,0.0149	-29704.77
0.9707,0.0293	-29704.96
0.9845,0.0155	-29696.43
0.9993,0.0007	-29692.38
0.9792,0.0208	-29696.91
0.9758,0.0242	-29726.86
0.9884,0.0116	-29700.67
0.9703,0.0297	-29701.50
0.9848,0.0152	-29708.92
0.9993,0.0007	-29692.39
0.9812,0.0188	-29700.66
0.9761,0.0239	-29719.52
0.9922,0.0078	-29705.97
0.9783,0.0217	-29700.81
0.9866,0.0134	-29692.00
0.9994,0.0006	-29692.57
0.9845,0.0155	-29704.73
0.9731,0.0269	-29704.81
0.9925,0.0075	-29696.28
0.9813,0.0187	-29708.58
0.9877,0.0123	-29700.63
0.9994,0.0006	-29692.50
0.9797,0.0203	-29700.73
0.9787,0.0213	-29700.79
0.9928,0.0072	-29701.23
0.9784,0.0216	-29700.80
0.9898,0.0102	-29709.93
0.9994,0.0006	-29692.63
0.9811,0.0189	-29704.61
0.9770,0.0230	-29697.15
0.9927,0.0073	-29696.30
0.9716,0.0284	-29701.37
0.9852,0.0148	-29692.18
0.9993,0.0007	-29692.38
0.9816,0.0184	-29696.67
0.9749,0.0251	-29715.71
0.9915,0.0085	-29696.23
0.9756,0.0244	-29715.76
0.9868,0.0132	-29700.60
0.9993,0.0007	-29692.48
0.9754,0.0246	-29719.43
0.9803,0.0197	-29700.70
0.9896,0.0104	-29696.21
0.9687,0.0313	-29705.10
0.9871,0.0129	-29709.29
0.9992,0.0008	-29692.37
0.9697,0.0303	-29705.03
0.9818,0.0182	-29700.64
0.9899,0.0101	-29691.62
0.9636,0.0364	-29702.28
0.9883,0.0117	-29700.66
0.9992,0.0008	-29692.31
0.9765,0.0235	-29700.93
0.9809,0.0191	-29708.55
0.9895,0.0105	-29691.66
0.9639,0.0361	-29715.38
0.9903,0.0097	-29696.21
0.9991,0.0009	-29692.23
0.9785,0.0215	-29693.16
0.9772,0.0228	-29708.40
