#isoforms=['ENSG00000186575.SE.4.A.up_ENSG00000186575.SE.4.A.SE1_ENSG00000186575.SE.4.A.dn','ENSG00000186575.SE.4.B.up_ENSG00000186575.SE.4.B.dn']	exon_lens=('ENSG00000186575.SE.4.A.up',128),('ENSG00000186575.SE.4.A.SE1',163),('ENSG00000186575.SE.4.A.dn',3847),('ENSG00000186575.SE.4.B.up',128),('ENSG00000186575.SE.4.B.dn',194)	iters=5000	burn_in=500	lag=10	percent_accept=98.30	proposal_type=drift	counts=(0,0):52,(1,0):142,(1,1):3	assigned_counts=0:145	chrom=chr22	strand=+	mRNA_starts=29678196,29678196	mRNA_ends=29698598,29694945
sampled_psi	log_score
0.8681,0.1319	-1205.21
0.8714,0.1286	-1207.09
0.7460,0.2540	-1207.77
0.7114,0.2886	-1208.11
0.9130,0.0870	-1207.12
0.8898,0.1102	-1204.99
0.8621,0.1379	-1207.11
0.8711,0.1289	-1207.09
0.7544,0.2456	-1206.58
0.7064,0.2936	-1208.16
0.9102,0.0898	-1207.11
0.9042,0.0958	-1207.10
0.8749,0.1251	-1205.14
0.8598,0.1402	-1207.12
0.7638,0.2362	-1209.97
0.7053,0.2947	-1208.17
0.9117,0.0883	-1207.11
0.8688,0.1312	-1207.10
0.8670,0.1330	-1205.23
0.8728,0.1272	-1207.09
0.7269,0.2731	-1207.95
0.7207,0.2793	-1208.01
0.9052,0.0948	-1207.10
0.8740,0.1260	-1205.15
0.8816,0.1184	-1205.08
0.9056,0.0944	-1204.84
0.7407,0.2593	-1206.77
0.7041,0.2959	-1207.32
0.9193,0.0807	-1204.71
0.8820,0.1180	-1205.07
0.8567,0.1433	-1205.34
0.9101,0.0899	-1204.79
0.7472,0.2528	-1207.76
0.6977,0.3023	-1207.42
0.9310,0.0690	-1207.20
0.8790,0.1210	-1205.10
0.8589,0.1411	-1205.31
0.9102,0.0898	-1207.11
0.7126,0.2874	-1209.00
0.7196,0.2804	-1207.08
0.9225,0.0775	-1207.15
0.9084,0.0916	-1204.81
0.8344,0.1656	-1205.58
0.8813,0.1187	-1205.08
0.7127,0.2873	-1208.10
0.7523,0.2477	-1207.72
0.9222,0.0778	-1204.68
0.9173,0.0827	-1204.72
0.8693,0.1307	-1205.20
0.8626,0.1374	-1207.11
0.7550,0.2450	-1207.70
0.6955,0.3045	-1208.28
0.9319,0.0681	-1207.21
0.9151,0.0849	-1204.75
0.8669,0.1331	-1207.10
0.8748,0.1252	-1207.09
0.7707,0.2293	-1206.36
0.6757,0.3243	-1208.52
0.9310,0.0690	-1204.60
0.9289,0.0711	-1204.62
0.8556,0.1444	-1207.13
0.8828,0.1172	-1205.06
0.7537,0.2463	-1207.71
0.6381,0.3619	-1209.03
0.9335,0.0665	-1204.57
0.9507,0.0493	-1204.42
0.8400,0.1600	-1205.52
0.8726,0.1274	-1205.17
0.7378,0.2622	-1207.85
0.6603,0.3397	-1208.72
0.9331,0.0669	-1204.58
0.9430,0.0570	-1204.49
0.8514,0.1486	-1205.39
0.8717,0.1283	-1205.18
0.7423,0.2577	-1206.75
0.6715,0.3285	-1209.29
0.9222,0.0778	-1204.68
0.9388,0.0612	-1204.53
0.8869,0.1131	-1205.02
0.8722,0.1278	-1207.09
0.7198,0.2802	-1208.02
0.6247,0.3753	-1209.23
0.9088,0.0912	-1204.81
0.9321,0.0679	-1204.59
0.8940,0.1060	-1204.95
0.8704,0.1296	-1207.09
0.7249,0.2751	-1207.00
0.7255,0.2745	-1206.99
0.9239,0.0761	-1204.66
0.9374,0.0626	-1207.25
0.9103,0.0897	-1204.79
0.8828,0.1172	-1205.06
0.7354,0.2646	-1207.87
0.6855,0.3145	-1209.18
0.9314,0.0686	-1204.59
0.9226,0.0774	-1207.15
0.9064,0.0936	-1204.83
0.8637,0.1363	-1205.26
0.7807,0.2193	-1206.23
0.7030,0.2970	-1208.20
0.9299,0.0701	-1204.61
0.9383,0.0617	-1204.53
0.8734,0.1266	-1205.16
0.8621,0.1379	-1205.28
0.7876,0.2124	-1206.14
0.7226,0.2774	-1207.99
0.9381,0.0619	-1204.53
0.9330,0.0670	-1204.58
0.8823,0.1177	-1207.08
0.8738,0.1262	-1207.09
0.8039,0.1961	-1207.35
0.7724,0.2276	-1206.34
0.9367,0.0633	-1204.55
0.9451,0.0549	-1204.47
0.8984,0.1016	-1204.91
0.8764,0.1236	-1205.13
0.7662,0.2338	-1207.61
0.7375,0.2625	-1207.85
0.9463,0.0537	-1204.46
0.9467,0.0533	-1207.33
0.8739,0.1261	-1205.15
0.8868,0.1132	-1207.08
0.7472,0.2528	-1206.68
0.7613,0.2387	-1206.49
0.9534,0.0466	-1204.40
0.9390,0.0610	-1204.52
0.8999,0.1001	-1204.89
0.8834,0.1166	-1205.06
0.7319,0.2681	-1208.91
0.7509,0.2491	-1208.84
0.9622,0.0378	-1207.56
0.9283,0.0717	-1204.62
0.9088,0.0912	-1204.81
0.8675,0.1325	-1205.22
0.7465,0.2535	-1207.77
0.7571,0.2429	-1207.68
0.9715,0.0285	-1204.24
0.9328,0.0672	-1204.58
0.8962,0.1038	-1204.93
0.8257,0.1743	-1205.68
0.7372,0.2628	-1207.85
0.7587,0.2413	-1206.52
0.9683,0.0317	-1204.27
0.9389,0.0611	-1204.53
0.8895,0.1105	-1205.00
0.7969,0.2031	-1207.39
0.7648,0.2352	-1206.44
0.7401,0.2599	-1206.78
0.9593,0.0407	-1204.35
0.9332,0.0668	-1207.21
0.8823,0.1177	-1207.08
0.7898,0.2102	-1206.11
0.7658,0.2342	-1206.43
0.7991,0.2009	-1206.00
0.9575,0.0425	-1204.36
0.9189,0.0811	-1204.71
0.8999,0.1001	-1204.89
0.8163,0.1837	-1205.79
0.8066,0.1934	-1205.91
0.7967,0.2033	-1206.03
0.9487,0.0513	-1204.44
0.9140,0.0860	-1204.76
0.8897,0.1103	-1207.08
0.8054,0.1946	-1207.34
0.7806,0.2194	-1206.23
0.8308,0.1692	-1207.21
0.9483,0.0517	-1204.44
0.9255,0.0745	-1204.65
0.8940,0.1060	-1204.95
0.7906,0.2094	-1206.10
0.7859,0.2141	-1207.46
0.7994,0.2006	-1205.99
0.9539,0.0461	-1204.39
0.9278,0.0722	-1204.63
0.8737,0.1263	-1205.16
0.7551,0.2449	-1206.57
0.8118,0.1882	-1205.85
0.7970,0.2030	-1207.39
0.9485,0.0515	-1204.44
0.9324,0.0676	-1204.58
0.8730,0.1270	-1205.16
0.7615,0.2385	-1206.48
0.7966,0.2034	-1207.39
0.7876,0.2124	-1206.14
0.9496,0.0504	-1204.43
0.9428,0.0572	-1204.49
0.8724,0.1276	-1205.17
0.8270,0.1730	-1205.67
0.8215,0.1785	-1210.31
0.7929,0.2071	-1207.42
0.9464,0.0536	-1204.46
0.9526,0.0474	-1204.40
0.8582,0.1418	-1205.32
0.8434,0.1566	-1207.16
0.8708,0.1292	-1205.19
0.8007,0.1993	-1205.98
0.9479,0.0521	-1204.45
0.9604,0.0396	-1204.34
0.9014,0.0986	-1204.88
0.8154,0.1846	-1207.29
0.8823,0.1177	-1205.07
0.8090,0.1910	-1207.32
0.9529,0.0471	-1204.40
0.9628,0.0372	-1204.32
0.9025,0.0975	-1204.87
0.8171,0.1829	-1205.78
0.8736,0.1264	-1205.16
0.7495,0.2505	-1208.84
0.9483,0.0517	-1204.44
0.9590,0.0410	-1204.35
0.9080,0.0920	-1204.81
0.8096,0.1904	-1207.32
0.8980,0.1020	-1204.91
0.7497,0.2503	-1208.84
0.9531,0.0469	-1204.40
0.9638,0.0362	-1204.31
0.9178,0.0822	-1207.13
0.7655,0.2345	-1206.43
0.9103,0.0897	-1204.79
0.7418,0.2582	-1207.81
0.9512,0.0488	-1204.42
0.9627,0.0373	-1204.32
0.9406,0.0594	-1207.27
0.7273,0.2727	-1206.97
0.9164,0.0836	-1207.13
0.7154,0.2846	-1207.15
0.9444,0.0556	-1204.48
0.9627,0.0373	-1204.32
0.9276,0.0724	-1204.63
0.6933,0.3067	-1208.31
0.9134,0.0866	-1204.76
0.6900,0.3100	-1209.95
0.9500,0.0500	-1204.43
0.9594,0.0406	-1204.34
0.9155,0.0845	-1207.12
0.7176,0.2824	-1208.98
0.9086,0.0914	-1204.81
0.7542,0.2458	-1208.83
0.9457,0.0543	-1204.47
0.9585,0.0415	-1207.49
0.9004,0.0996	-1204.89
0.7485,0.2515	-1207.75
0.9335,0.0665	-1204.58
0.7755,0.2245	-1207.54
0.9385,0.0615	-1207.25
0.9689,0.0311	-1207.70
0.9031,0.0969	-1204.86
0.7430,0.2570	-1206.74
0.9255,0.0745	-1204.65
0.7599,0.2401	-1206.51
0.9279,0.0721	-1204.63
0.9619,0.0381	-1204.32
0.8710,0.1290	-1205.18
0.7542,0.2458	-1207.70
0.9372,0.0628	-1204.54
0.7660,0.2340	-1206.42
0.9114,0.0886	-1204.78
0.9661,0.0339	-1204.29
0.8689,0.1311	-1207.10
0.7840,0.2160	-1210.06
0.9423,0.0577	-1204.50
0.7771,0.2229	-1206.28
0.9147,0.0853	-1204.75
0.9694,0.0306	-1204.26
0.8790,0.1210	-1207.08
0.7864,0.2136	-1206.16
0.9440,0.0560	-1204.48
0.7954,0.2046	-1206.04
0.9180,0.0820	-1204.72
0.9665,0.0335	-1204.28
0.8921,0.1079	-1209.19
0.7181,0.2819	-1207.10
0.9517,0.0483	-1204.41
0.7939,0.2061	-1206.06
0.8962,0.1038	-1204.93
0.9743,0.0257	-1204.22
0.8901,0.1099	-1204.99
0.7105,0.2895	-1207.22
0.9494,0.0506	-1207.36
0.8025,0.1975	-1207.36
0.9040,0.0960	-1204.85
0.9749,0.0251	-1204.21
0.8868,0.1132	-1205.02
0.6627,0.3373	-1208.69
0.9542,0.0458	-1204.39
0.8177,0.1823	-1205.77
0.8703,0.1297	-1205.19
0.9793,0.0207	-1204.18
0.8748,0.1252	-1209.03
0.6473,0.3527	-1208.90
0.9612,0.0388	-1204.33
0.8215,0.1785	-1207.26
0.8549,0.1451	-1207.13
0.9771,0.0229	-1204.19
0.8499,0.1501	-1205.41
0.7033,0.2967	-1208.20
0.9583,0.0417	-1204.35
0.7855,0.2145	-1206.17
0.8886,0.1114	-1207.08
0.9732,0.0268	-1204.23
0.8646,0.1354	-1205.25
0.6587,0.3413	-1208.08
0.9558,0.0442	-1204.38
0.7993,0.2007	-1208.76
0.8892,0.1108	-1205.00
0.9743,0.0257	-1204.22
0.8720,0.1280	-1205.17
0.7247,0.2753	-1207.01
0.9609,0.0391	-1204.33
0.8096,0.1904	-1205.87
0.8908,0.1092	-1207.08
0.9768,0.0232	-1204.20
0.8654,0.1346	-1205.24
0.7392,0.2608	-1206.79
0.9490,0.0510	-1204.44
0.7735,0.2265	-1207.55
0.8927,0.1073	-1204.96
0.9773,0.0227	-1207.95
0.8564,0.1436	-1207.12
0.7571,0.2429	-1206.54
0.9498,0.0502	-1204.43
0.7667,0.2333	-1207.60
0.8761,0.1239	-1205.13
0.9791,0.0209	-1204.18
0.8832,0.1168	-1205.06
0.7488,0.2512	-1206.66
0.9447,0.0553	-1210.15
0.7952,0.2048	-1207.40
0.8868,0.1132	-1205.02
0.9706,0.0294	-1204.25
0.8676,0.1324	-1207.10
0.7672,0.2328	-1208.79
0.9521,0.0479	-1204.41
0.8084,0.1916	-1205.89
0.9092,0.0908	-1204.80
0.9645,0.0355	-1204.30
0.8202,0.1798	-1205.74
0.7726,0.2274	-1207.56
0.9480,0.0520	-1204.45
0.8289,0.1711	-1205.64
0.8923,0.1077	-1204.97
0.9627,0.0373	-1204.32
0.8100,0.1900	-1207.32
0.7480,0.2520	-1207.76
0.9438,0.0562	-1207.30
0.8395,0.1605	-1205.52
0.8695,0.1305	-1207.10
0.9632,0.0368	-1204.31
0.7993,0.2007	-1206.00
0.7618,0.2382	-1206.48
0.9525,0.0475	-1204.41
0.8537,0.1463	-1205.37
0.8650,0.1350	-1207.10
0.9661,0.0339	-1204.29
0.7684,0.2316	-1206.39
0.7555,0.2445	-1206.57
0.9331,0.0669	-1204.58
0.9021,0.0979	-1204.87
0.8535,0.1465	-1205.37
0.9654,0.0346	-1204.29
0.7274,0.2726	-1207.95
0.7845,0.2155	-1206.18
0.9293,0.0707	-1204.61
0.8896,0.1104	-1207.08
0.8226,0.1774	-1205.72
0.9655,0.0345	-1204.29
0.7588,0.2412	-1206.52
0.7866,0.2134	-1207.46
0.9280,0.0720	-1204.63
0.8658,0.1342	-1205.24
0.8105,0.1895	-1207.31
0.9712,0.0288	-1204.24
0.7969,0.2031	-1206.03
0.8109,0.1891	-1205.86
0.9245,0.0755	-1204.66
0.8361,0.1639	-1205.56
0.8083,0.1917	-1205.89
0.9707,0.0293	-1204.25
0.8018,0.1982	-1205.97
0.8122,0.1878	-1205.84
0.9017,0.0983	-1207.09
0.8403,0.1597	-1205.52
0.8155,0.1845	-1208.77
0.9630,0.0370	-1204.31
0.7690,0.2310	-1207.59
0.8516,0.1484	-1205.39
0.9147,0.0853	-1204.75
0.8424,0.1576	-1205.49
0.8244,0.1756	-1205.70
0.9474,0.0526	-1204.45
0.8049,0.1951	-1205.93
0.8550,0.1450	-1205.35
0.9241,0.0759	-1204.66
0.8559,0.1441	-1205.34
0.8252,0.1748	-1205.69
0.9446,0.0554	-1204.48
0.7759,0.2241	-1208.78
0.8299,0.1701	-1205.63
0.9399,0.0601	-1204.52
0.8403,0.1597	-1207.18
0.8079,0.1921	-1208.76
0.9502,0.0498	-1204.43
0.7755,0.2245	-1206.30
0.8166,0.1834	-1205.79
0.9339,0.0661	-1207.22
0.8632,0.1368	-1207.11
0.8192,0.1808	-1205.76
0.9435,0.0565	-1204.49
0.7909,0.2091	-1206.10
0.8244,0.1756	-1208.79
0.9317,0.0683	-1207.20
0.8698,0.1302	-1205.20
0.8094,0.1906	-1207.32
0.9358,0.0642	-1204.55
0.8006,0.1994	-1205.98
0.8543,0.1457	-1205.36
0.9163,0.0837	-1204.73
0.8938,0.1062	-1207.08
0.8045,0.1955	-1205.93
0.9435,0.0565	-1204.49
0.8145,0.1855	-1205.81
0.8534,0.1466	-1205.37
0.9067,0.0933	-1204.83
0.9215,0.0785	-1204.69
0.7898,0.2102	-1206.11
0.9612,0.0388	-1204.33
0.8121,0.1879	-1205.84
0.8434,0.1566	-1205.48
0.9129,0.0871	-1204.77
0.9311,0.0689	-1204.60
0.7746,0.2254	-1208.78
0.9532,0.0468	-1204.40
0.8206,0.1794	-1207.26
0.8207,0.1793	-1205.74
0.8893,0.1107	-1205.00
0.9307,0.0693	-1204.60
0.8113,0.1887	-1205.85
0.9381,0.0619	-1207.25
0.8057,0.1943	-1207.34
0.8509,0.1491	-1207.14
0.8841,0.1159	-1207.08
0.9378,0.0622	-1204.54
0.8013,0.1987	-1205.97
0.9437,0.0563	-1204.48
0.8085,0.1915	-1207.32
0.8291,0.1709	-1205.64
0.8847,0.1153	-1205.04
0.9289,0.0711	-1204.62
0.7984,0.2016	-1207.38
0.9551,0.0449	-1204.38
0.8020,0.1980	-1207.36
0.8352,0.1648	-1207.20
0.8627,0.1373	-1207.11
0.9076,0.0924	-1204.82
0.7875,0.2125	-1208.76
0.9431,0.0569	-1207.30
0.7977,0.2023	-1206.02
0.8311,0.1689	-1205.62
0.8282,0.1718	-1205.65
0.8907,0.1093	-1204.98
0.7973,0.2027	-1207.39
0.9436,0.0564	-1204.48
0.7734,0.2266	-1208.78
0.8279,0.1721	-1205.66
0.8209,0.1791	-1207.26
0.8819,0.1181	-1207.08
0.8017,0.1983	-1205.97
0.9235,0.0765	-1204.67
0.7683,0.2317	-1206.39
0.8597,0.1403	-1205.30
0.8410,0.1590	-1205.51
0.8885,0.1115	-1205.00
0.8129,0.1871	-1205.83
0.9130,0.0870	-1204.77
0.7800,0.2200	-1208.77
0.8752,0.1248	-1207.09
0.8098,0.1902	-1205.87
0.8901,0.1099	-1204.99
0.7600,0.2400	-1208.81
0.9109,0.0891	-1204.79
0.7855,0.2145	-1207.47
0.8579,0.1421	-1205.32
0.8062,0.1938	-1205.91
0.8863,0.1137	-1209.13
0.7736,0.2264	-1207.55
0.9048,0.0952	-1204.84
0.7752,0.2248	-1207.54
0.8637,0.1363	-1207.11
0.8174,0.1826	-1207.28
0.8773,0.1227	-1207.09
0.7836,0.2164	-1207.48
0.8829,0.1171	-1205.06
0.7869,0.2131	-1206.15
0.8359,0.1641	-1205.57
0.8260,0.1740	-1207.24
0.8478,0.1522	-1207.15
0.7550,0.2450	-1207.70
0.8975,0.1025	-1204.92
0.7926,0.2074	-1207.42
0.8754,0.1246	-1205.14
0.8677,0.1323	-1208.98
0.8667,0.1333	-1207.10
0.7244,0.2756	-1207.01
0.8948,0.1052	-1204.94
0.7661,0.2339	-1206.42
0.8745,0.1255	-1207.09
0.8691,0.1309	-1205.20
0.8786,0.1214	-1207.08
0.7594,0.2406	-1206.51
0.8727,0.1273	-1207.09
0.7730,0.2270	-1207.56
0.8751,0.1249	-1205.14
0.8789,0.1211	-1207.08
0.8960,0.1040	-1204.93
0.7400,0.2600	-1208.87
0.8700,0.1300	-1207.10
0.7905,0.2095	-1206.11
0.8986,0.1014	-1207.09
0.8728,0.1272	-1205.17
0.8968,0.1032	-1204.92
0.7612,0.2388	-1207.65
0.8672,0.1328	-1207.10
0.8120,0.1880	-1207.31
0.8763,0.1237	-1205.13
0.8743,0.1257	-1205.15
0.8880,0.1120	-1207.08
0.8044,0.1956	-1205.93
0.8410,0.1590	-1207.17
0.8188,0.1812	-1205.76
0.8819,0.1181	-1207.08
0.8655,0.1345	-1205.24
0.8823,0.1177	-1207.08
0.7594,0.2406	-1208.81
0.8199,0.1801	-1205.75
0.8283,0.1717	-1207.23
0.8746,0.1254	-1207.09
0.8507,0.1493	-1207.14
0.8914,0.1086	-1207.08
0.7262,0.2738	-1207.96
0.8029,0.1971	-1205.95
0.8142,0.1858	-1208.77
0.8731,0.1269	-1205.16
0.8663,0.1337	-1205.23
0.8717,0.1283	-1209.01
0.7455,0.2545	-1208.85
0.8036,0.1964	-1205.94
0.8204,0.1796	-1208.78
0.8766,0.1234	-1209.05
0.8370,0.1630	-1207.19
0.8473,0.1527	-1205.44
0.7685,0.2315	-1206.39
0.7916,0.2084	-1206.09
0.8271,0.1729	-1207.23
0.9121,0.0879	-1204.77
0.8671,0.1329	-1207.10
0.8533,0.1467	-1205.37
0.8197,0.1803	-1207.27
0.7695,0.2305	-1207.58
0.8029,0.1971	-1205.95
0.9147,0.0853	-1204.75
0.8647,0.1353	-1205.25
0.8577,0.1423	-1208.92
0.8416,0.1584	-1205.50
0.7630,0.2370	-1207.63
0.7843,0.2157	-1206.18
0.9058,0.0942	-1204.84
0.8649,0.1351	-1207.10
0.8320,0.1680	-1205.61
0.8462,0.1538	-1205.45
0.7802,0.2198	-1207.50
0.7603,0.2397	-1206.50
0.8965,0.1035	-1204.93
0.8669,0.1331	-1205.23
0.8005,0.1995	-1205.98
0.8660,0.1340	-1207.10
0.8144,0.1856	-1207.29
0.7785,0.2215	-1206.26
0.9125,0.0875	-1204.77
0.8428,0.1572	-1208.85
0.7736,0.2264	-1206.32
0.8604,0.1396	-1205.30
0.8097,0.1903	-1207.32
0.8005,0.1995	-1205.98
0.9170,0.0830	-1204.73
0.8504,0.1496	-1207.14
0.7604,0.2396	-1206.50
0.8530,0.1470	-1205.38
0.8538,0.1462	-1205.37
0.7997,0.2003	-1205.99
0.9227,0.0773	-1204.67
0.8673,0.1327	-1205.22
0.7456,0.2544	-1207.78
0.8594,0.1406	-1205.31
0.8542,0.1458	-1208.90
0.8234,0.1766	-1207.25
0.9449,0.0551	-1204.47
0.8638,0.1362	-1205.26
0.7023,0.2977	-1208.21
0.8605,0.1395	-1205.29
0.8417,0.1583	-1205.50
0.8481,0.1519	-1205.43
0.9259,0.0741	-1204.64
0.8777,0.1223	-1205.11
0.7410,0.2590	-1209.92
0.8785,0.1215	-1207.08
0.8301,0.1699	-1205.63
0.8348,0.1652	-1207.20
0.9197,0.0803	-1204.70
0.8734,0.1266	-1207.09
0.7323,0.2677	-1207.90
0.8889,0.1111	-1205.00
0.8014,0.1986	-1205.97
0.8500,0.1500	-1207.14
0.9160,0.0840	-1207.13
0.8903,0.1097	-1204.99
0.7122,0.2878	-1207.19
0.9006,0.0994	-1204.89
0.8174,0.1826	-1205.78
0.8710,0.1290	-1205.18
0.9220,0.0780	-1204.68
0.8829,0.1171	-1207.08
0.7499,0.2501	-1206.64
0.9070,0.0930	-1204.82
0.8203,0.1797	-1205.74
0.8815,0.1185	-1205.08
0.9286,0.0714	-1207.19
0.9071,0.0929	-1204.82
0.8147,0.1853	-1207.29
0.9155,0.0845	-1204.74
0.8067,0.1933	-1205.91
0.8698,0.1302	-1207.10
0.9368,0.0632	-1204.55
0.8851,0.1149	-1205.04
0.8227,0.1773	-1207.25
0.9158,0.0842	-1207.13
0.8316,0.1684	-1205.61
0.8655,0.1345	-1205.24
0.9120,0.0880	-1204.78
0.9016,0.0984	-1204.88
0.8029,0.1971	-1205.95
0.9113,0.0887	-1204.78
0.8485,0.1515	-1205.42
0.8688,0.1312	-1205.21
0.9144,0.0856	-1207.12
0.8976,0.1024	-1207.09
0.8368,0.1632	-1205.55
0.9105,0.0895	-1207.11
0.8437,0.1563	-1205.48
0.8842,0.1158	-1207.08
0.9252,0.0748	-1204.65
0.8990,0.1010	-1204.90
0.8127,0.1873	-1207.30
0.9010,0.0990	-1204.88
0.8716,0.1284	-1205.18
0.8855,0.1145	-1205.04
0.9242,0.0758	-1204.66
0.9122,0.0878	-1204.77
0.8419,0.1581	-1205.50
0.8808,0.1192	-1207.08
0.8711,0.1289	-1205.18
0.8994,0.1006	-1204.90
0.9223,0.0777	-1204.68
0.9246,0.0754	-1204.66
0.8538,0.1462	-1205.37
0.8551,0.1449	-1208.90
0.8809,0.1191	-1209.08
0.9213,0.0787	-1204.69
0.9288,0.0712	-1207.19
0.9219,0.0781	-1204.68
0.8691,0.1309	-1207.10
0.8585,0.1415	-1207.12
0.9040,0.0960	-1204.85
0.9050,0.0950	-1204.84
0.9204,0.0796	-1207.14
0.9156,0.0844	-1207.13
0.8525,0.1475	-1205.38
0.8612,0.1388	-1207.11
0.8978,0.1022	-1204.91
0.9223,0.0777	-1204.68
0.9161,0.0839	-1204.74
0.9293,0.0707	-1204.61
0.8615,0.1385	-1207.11
0.8521,0.1479	-1205.39
0.8977,0.1023	-1204.91
0.9203,0.0797	-1204.70
0.9030,0.0970	-1204.86
0.9214,0.0786	-1204.69
0.8390,0.1610	-1205.53
0.8321,0.1679	-1205.61
0.9094,0.0906	-1204.80
0.9353,0.0647	-1204.56
0.9219,0.0781	-1204.68
0.9302,0.0698	-1204.61
0.8559,0.1441	-1205.34
0.8277,0.1723	-1208.80
0.9108,0.0892	-1204.79
0.9257,0.0743	-1204.65
0.9418,0.0582	-1204.50
0.9194,0.0806	-1204.71
0.8667,0.1333	-1205.23
0.8467,0.1533	-1205.44
0.9047,0.0953	-1204.85
0.9392,0.0608	-1204.52
0.9472,0.0528	-1204.45
0.9337,0.0663	-1204.57
0.8678,0.1322	-1205.22
0.8126,0.1874	-1205.83
0.9041,0.0959	-1204.85
0.9353,0.0647	-1204.56
0.9478,0.0522	-1207.35
0.9339,0.0661	-1204.57
0.8945,0.1055	-1204.95
0.8142,0.1858	-1205.82
0.9075,0.0925	-1204.82
0.9156,0.0844	-1204.74
0.9361,0.0639	-1207.24
0.9393,0.0607	-1207.26
0.8977,0.1023	-1204.91
0.8236,0.1764	-1207.25
0.8967,0.1033	-1209.25
0.9104,0.0896	-1204.79
0.9532,0.0468	-1204.40
0.9467,0.0533	-1207.33
0.8973,0.1027	-1207.09
0.8279,0.1721	-1205.66
0.8880,0.1120	-1205.01
0.9200,0.0800	-1204.70
0.9599,0.0401	-1204.34
0.9537,0.0463	-1204.39
0.9049,0.0951	-1207.10
0.8341,0.1659	-1205.59
0.8856,0.1144	-1207.08
0.9189,0.0811	-1204.71
0.9544,0.0456	-1204.39
0.9511,0.0489	-1204.42
0.8867,0.1133	-1207.08
0.7781,0.2219	-1206.26
0.9064,0.0936	-1207.10
0.9179,0.0821	-1204.72
0.9520,0.0480	-1204.41
0.9424,0.0576	-1204.49
0.9047,0.0953	-1204.85
0.7593,0.2407	-1206.51
0.9227,0.0773	-1204.67
0.9014,0.0986	-1204.88
0.9650,0.0350	-1207.61
0.9506,0.0494	-1207.38
0.9012,0.0988	-1204.88
0.7568,0.2432	-1206.55
0.9180,0.0820	-1204.72
0.9198,0.0802	-1204.70
0.9713,0.0287	-1204.24
0.9403,0.0597	-1204.51
0.8981,0.1019	-1207.09
0.7561,0.2439	-1206.56
0.9300,0.0700	-1204.61
0.9179,0.0821	-1204.72
0.9692,0.0308	-1204.26
0.9276,0.0724	-1204.63
0.8854,0.1146	-1205.04
0.7564,0.2436	-1206.55
0.9371,0.0629	-1204.54
0.9023,0.0977	-1207.09
0.9708,0.0292	-1204.25
0.9321,0.0679	-1204.59
0.8564,0.1436	-1205.34
0.7645,0.2355	-1206.44
0.9414,0.0586	-1204.50
0.8868,0.1132	-1205.02
0.9680,0.0320	-1204.27
0.9343,0.0657	-1204.57
0.8597,0.1403	-1205.30
0.8059,0.1941	-1205.92
0.9440,0.0560	-1204.48
0.9056,0.0944	-1209.36
0.9684,0.0316	-1204.27
0.9294,0.0706	-1204.61
0.8589,0.1411	-1205.31
0.8040,0.1960	-1205.94
0.9521,0.0479	-1204.41
0.8987,0.1013	-1207.09
0.9574,0.0426	-1204.36
0.9181,0.0819	-1204.72
0.8523,0.1477	-1205.38
0.8102,0.1898	-1207.32
0.9578,0.0422	-1204.36
0.8972,0.1028	-1207.09
0.9628,0.0372	-1204.32
0.9278,0.0722	-1204.63
0.8151,0.1849	-1205.81
0.8736,0.1264	-1207.09
0.9585,0.0415	-1204.35
0.8953,0.1047	-1204.94
0.9542,0.0458	-1207.43
0.9392,0.0608	-1207.26
0.8345,0.1655	-1207.20
0.8905,0.1095	-1204.99
0.9536,0.0464	-1204.40
0.8950,0.1050	-1204.94
0.9580,0.0420	-1204.36
0.9338,0.0662	-1207.22
0.8464,0.1536	-1205.45
0.8520,0.1480	-1205.39
0.9558,0.0442	-1204.38
0.9051,0.0949	-1204.84
0.9547,0.0453	-1204.39
0.9506,0.0494	-1204.42
0.8599,0.1401	-1207.12
0.8575,0.1425	-1207.12
0.9592,0.0408	-1204.35
0.8909,0.1091	-1204.98
0.9567,0.0433	-1204.37
0.9446,0.0554	-1204.47
0.8748,0.1252	-1205.14
0.8119,0.1881	-1208.77
0.9673,0.0327	-1204.28
0.9003,0.0997	-1204.89
0.9571,0.0429	-1204.37
0.9398,0.0602	-1204.52
0.8846,0.1154	-1205.04
0.8354,0.1646	-1205.57
0.9624,0.0376	-1204.32
0.9142,0.0858	-1204.75
0.9657,0.0343	-1204.29
0.9470,0.0530	-1204.45
0.9037,0.0963	-1204.85
0.8583,0.1417	-1207.12
0.9611,0.0389	-1204.33
0.9069,0.0931	-1207.10
0.9677,0.0323	-1204.27
0.9455,0.0545	-1204.47
0.8923,0.1077	-1207.08
0.8738,0.1262	-1205.16
0.9593,0.0407	-1207.51
0.9051,0.0949	-1207.10
0.9727,0.0273	-1204.23
0.9492,0.0508	-1207.36
0.9126,0.0874	-1204.77
0.8915,0.1085	-1209.19
0.9541,0.0459	-1204.39
0.9061,0.0939	-1204.83
0.9699,0.0301	-1204.26
0.9508,0.0492	-1204.42
0.9105,0.0895	-1204.79
0.8847,0.1153	-1205.04
0.9379,0.0621	-1204.53
0.8966,0.1034	-1204.92
0.9746,0.0254	-1204.22
0.9465,0.0535	-1204.46
0.9087,0.0913	-1207.10
0.8712,0.1288	-1207.09
0.9293,0.0707	-1204.61
0.9069,0.0931	-1207.10
0.9694,0.0306	-1204.26
0.9585,0.0415	-1204.35
0.8983,0.1017	-1207.09
0.8803,0.1197	-1205.09
0.9260,0.0740	-1204.64
0.8959,0.1041	-1209.24
0.9666,0.0334	-1204.28
0.9545,0.0455	-1204.39
0.8858,0.1142	-1205.03
0.8753,0.1247	-1205.14
0.9379,0.0621	-1204.53
0.8986,0.1014	-1204.91
0.9680,0.0320	-1204.27
0.9579,0.0421	-1204.36
0.9021,0.0979	-1204.87
0.8693,0.1307	-1205.20
0.9242,0.0758	-1204.66
0.9098,0.0902	-1204.80
0.9643,0.0357	-1204.30
0.9642,0.0358	-1204.30
0.9107,0.0893	-1204.79
0.9002,0.0998	-1204.89
0.9032,0.0968	-1204.86
0.9105,0.0895	-1204.79
0.9635,0.0365	-1204.31
0.9677,0.0323	-1204.27
0.9124,0.0876	-1207.11
0.8857,0.1143	-1205.03
0.9057,0.0943	-1204.84
0.9203,0.0797	-1204.70
0.9638,0.0362	-1204.31
0.9725,0.0275	-1204.23
0.9224,0.0776	-1204.68
0.8731,0.1269	-1205.16
0.9198,0.0802	-1207.14
0.9226,0.0774	-1204.68
0.9649,0.0351	-1204.30
0.9711,0.0289	-1207.76
0.9392,0.0608	-1204.52
0.8834,0.1166	-1205.06
0.9134,0.0866	-1204.76
0.9016,0.0984	-1204.88
0.9642,0.0358	-1204.30
0.9721,0.0279	-1204.24
0.9427,0.0573	-1204.49
0.8884,0.1116	-1205.01
0.9025,0.0975	-1204.87
0.9200,0.0800	-1204.70
0.9605,0.0395	-1204.34
0.9709,0.0291	-1204.25
0.9485,0.0515	-1204.44
0.8624,0.1376	-1205.27
0.9171,0.0829	-1204.73
0.8902,0.1098	-1204.99
0.9639,0.0361	-1207.59
0.9654,0.0346	-1204.29
0.9372,0.0628	-1204.54
0.8635,0.1365	-1207.11
0.9249,0.0751	-1207.17
0.8668,0.1332	-1208.97
0.9552,0.0448	-1204.38
0.9751,0.0249	-1204.21
0.9255,0.0745	-1204.65
0.8517,0.1483	-1207.14
0.9118,0.0882	-1207.11
0.8555,0.1445	-1205.35
0.9489,0.0511	-1204.44
0.9774,0.0226	-1204.19
0.9146,0.0854	-1204.75
0.8311,0.1689	-1205.62
0.9052,0.0948	-1207.10
0.8710,0.1290	-1207.09
0.9415,0.0585	-1207.28
0.9740,0.0260	-1204.22
0.9199,0.0801	-1204.70
0.8158,0.1842	-1205.80
0.9097,0.0903	-1204.80
0.8904,0.1096	-1204.99
0.9335,0.0665	-1207.22
0.9737,0.0263	-1204.22
0.9062,0.0938	-1204.83
0.8261,0.1739	-1207.23
0.9132,0.0868	-1204.76
0.9035,0.0965	-1204.86
0.9377,0.0623	-1204.54
0.9781,0.0219	-1204.19
0.9099,0.0901	-1204.80
0.8001,0.1999	-1207.37
0.9096,0.0904	-1204.80
0.9050,0.0950	-1204.84
0.9578,0.0422	-1204.36
0.9747,0.0253	-1204.21
0.8932,0.1068	-1207.08
0.8135,0.1865	-1207.30
0.8990,0.1010	-1207.09
0.9075,0.0925	-1207.10
0.9536,0.0464	-1204.40
0.9766,0.0234	-1204.20
0.9032,0.0968	-1207.09
0.8063,0.1937	-1207.34
0.9208,0.0792	-1204.69
0.9073,0.0927	-1204.82
0.9277,0.0723	-1204.63
0.9698,0.0302	-1204.26
0.8859,0.1141	-1207.08
0.8118,0.1882	-1205.85
0.9175,0.0825	-1204.72
0.9130,0.0870	-1207.12
0.9000,0.1000	-1204.89
0.9751,0.0249	-1204.21
0.9205,0.0795	-1207.14
0.8474,0.1526	-1205.44
0.9121,0.0879	-1209.45
0.9224,0.0776	-1207.15
0.8967,0.1033	-1204.92
0.9762,0.0238	-1207.92
0.9219,0.0781	-1204.68
0.8341,0.1659	-1205.59
0.9294,0.0706	-1204.61
0.9187,0.0813	-1204.71
0.8976,0.1024	-1204.91
0.9734,0.0266	-1204.23
0.9303,0.0697	-1204.60
0.8154,0.1846	-1205.80
0.9370,0.0630	-1207.24
0.9241,0.0759	-1204.66
0.8718,0.1282	-1205.18
0.9777,0.0223	-1204.19
0.9269,0.0731	-1204.64
0.7869,0.2131	-1206.15
0.9339,0.0661	-1204.57
0.9282,0.0718	-1207.18
0.8661,0.1339	-1205.24
0.9844,0.0156	-1204.13
0.9165,0.0835	-1204.73
0.7749,0.2251	-1207.54
0.9404,0.0596	-1207.27
0.9294,0.0706	-1204.61
0.8791,0.1209	-1207.08
0.9836,0.0164	-1204.14
0.8901,0.1099	-1204.99
0.8259,0.1741	-1205.68
0.9578,0.0422	-1204.36
0.9330,0.0670	-1207.21
0.8780,0.1220	-1207.09
0.9835,0.0165	-1204.14
0.8805,0.1195	-1205.09
0.8572,0.1428	-1207.12
0.9534,0.0466	-1204.40
0.9233,0.0767	-1207.16
0.8836,0.1164	-1205.05
0.9817,0.0183	-1204.16
0.8998,0.1002	-1204.89
0.9089,0.0911	-1204.80
0.9530,0.0470	-1204.40
0.9301,0.0699	-1204.61
0.8849,0.1151	-1207.08
0.9849,0.0151	-1204.13
0.9127,0.0873	-1204.77
0.9135,0.0865	-1207.12
0.9473,0.0527	-1204.45
0.9337,0.0663	-1204.57
0.8939,0.1061	-1207.08
0.9823,0.0177	-1204.15
0.9303,0.0697	-1204.60
0.9086,0.0914	-1207.10
0.9496,0.0504	-1204.43
0.9267,0.0733	-1204.64
0.8832,0.1168	-1205.06
0.9835,0.0165	-1204.14
0.9299,0.0701	-1204.61
0.9091,0.0909	-1204.80
0.9488,0.0512	-1204.44
0.9374,0.0626	-1204.54
0.9111,0.0889	-1204.78
0.9814,0.0186	-1204.16
0.9296,0.0704	-1204.61
0.8743,0.1257	-1207.09
0.9518,0.0482	-1204.41
0.9341,0.0659	-1204.57
0.8994,0.1006	-1207.09
0.9769,0.0231	-1204.20
0.9313,0.0687	-1204.60
0.8772,0.1228	-1205.12
0.9485,0.0515	-1204.44
0.9240,0.0760	-1207.16
0.9020,0.0980	-1204.87
0.9803,0.0197	-1204.17
0.9401,0.0599	-1204.52
0.8544,0.1456	-1205.36
0.9696,0.0304	-1204.26
0.9377,0.0623	-1207.25
0.9221,0.0779	-1204.68
0.9780,0.0220	-1204.19
0.9433,0.0567	-1207.30
0.8784,0.1216	-1205.11
0.9778,0.0222	-1204.19
0.9424,0.0576	-1204.49
0.9126,0.0874	-1204.77
0.9671,0.0329	-1207.66
0.9361,0.0639	-1204.55
0.8621,0.1379	-1205.28
0.9789,0.0211	-1204.18
0.9549,0.0451	-1204.38
0.9082,0.0918	-1207.10
0.9715,0.0285	-1204.24
0.9430,0.0570	-1204.49
0.8333,0.1667	-1207.20
0.9760,0.0240	-1204.20
0.9476,0.0524	-1207.34
0.9039,0.0961	-1207.09
0.9742,0.0258	-1204.22
0.9479,0.0521	-1204.45
0.8043,0.1957	-1207.35
0.9762,0.0238	-1207.92
0.9498,0.0502	-1204.43
0.8760,0.1240	-1207.09
0.9784,0.0216	-1204.18
0.9525,0.0475	-1207.40
0.7792,0.2208	-1207.51
0.9793,0.0207	-1204.18
0.9224,0.0776	-1204.68
0.8670,0.1330	-1205.23
0.9779,0.0221	-1204.19
0.9523,0.0477	-1204.41
0.7675,0.2325	-1207.60
0.9792,0.0208	-1204.18
0.9178,0.0822	-1204.72
0.8936,0.1064	-1204.95
0.9721,0.0279	-1204.24
0.9496,0.0504	-1204.43
0.7072,0.2928	-1209.04
0.9793,0.0207	-1204.18
0.9285,0.0715	-1204.62
0.8727,0.1273	-1205.17
0.9772,0.0228	-1204.19
0.9522,0.0478	-1204.41
0.7027,0.2973	-1209.06
0.9827,0.0173	-1204.15
0.9474,0.0526	-1204.45
0.8522,0.1478	-1205.38
0.9793,0.0207	-1204.18
0.9493,0.0507	-1204.43
0.6457,0.3543	-1209.52
0.9818,0.0182	-1204.16
0.9423,0.0577	-1204.50
0.8524,0.1476	-1207.14
0.9834,0.0166	-1204.14
0.9512,0.0488	-1204.42
0.6780,0.3220	-1208.49
0.9829,0.0171	-1204.15
0.9267,0.0733	-1204.64
0.8600,0.1400	-1205.30
0.9824,0.0176	-1204.15
0.9504,0.0496	-1204.42
0.6141,0.3859	-1209.40
0.9786,0.0214	-1208.00
0.9193,0.0807	-1204.71
0.8938,0.1062	-1207.08
0.9846,0.0154	-1204.13
0.9655,0.0345	-1204.29
0.6644,0.3356	-1208.66
0.9788,0.0212	-1204.18
0.9107,0.0893	-1204.79
0.8864,0.1136	-1205.03
0.9846,0.0154	-1204.13
0.9638,0.0362	-1204.31
0.6486,0.3514	-1208.88
0.9803,0.0197	-1204.17
0.9108,0.0892	-1204.79
0.9185,0.0815	-1204.71
0.9841,0.0159	-1204.14
0.9666,0.0334	-1204.28
0.6230,0.3770	-1209.76
0.9816,0.0184	-1204.16
0.8974,0.1026	-1204.92
0.9140,0.0860	-1209.48
0.9837,0.0163	-1204.14
0.9595,0.0405	-1204.34
0.6427,0.3573	-1210.14
0.9839,0.0161	-1204.14
0.9136,0.0864	-1204.76
0.9118,0.0882	-1204.78
0.9794,0.0206	-1204.18
0.9593,0.0407	-1204.35
0.6279,0.3721	-1208.66
0.9857,0.0143	-1204.12
0.9291,0.0709	-1204.62
0.9143,0.0857	-1204.75
0.9827,0.0173	-1204.15
0.9534,0.0466	-1204.40
0.6381,0.3619	-1209.03
0.9858,0.0142	-1204.12
0.9307,0.0693	-1207.20
0.9287,0.0713	-1207.19
0.9815,0.0185	-1204.16
0.9564,0.0436	-1204.37
0.6634,0.3366	-1210.03
0.9876,0.0124	-1204.11
0.9176,0.0824	-1207.13
0.9269,0.0731	-1204.64
0.9802,0.0198	-1204.17
0.9575,0.0425	-1204.36
0.6066,0.3934	-1209.09
0.9877,0.0123	-1204.11
0.9268,0.0732	-1204.64
0.9215,0.0785	-1207.15
0.9745,0.0255	-1204.22
0.9468,0.0532	-1204.46
0.5880,0.4120	-1209.49
0.9873,0.0127	-1204.11
0.9307,0.0693	-1204.60
0.9049,0.0951	-1207.10
0.9758,0.0242	-1204.21
0.9658,0.0342	-1204.29
0.6376,0.3624	-1208.47
0.9872,0.0128	-1204.11
0.9372,0.0628	-1204.54
0.9173,0.0827	-1204.73
0.9773,0.0227	-1204.19
0.9738,0.0262	-1204.22
0.5860,0.4140	-1209.88
0.9904,0.0096	-1204.09
0.9304,0.0696	-1207.20
0.9036,0.0964	-1204.86
0.9773,0.0227	-1204.19
0.9781,0.0219	-1204.19
0.6421,0.3579	-1208.97
0.9893,0.0107	-1204.09
0.9322,0.0678	-1204.59
0.9168,0.0832	-1204.73
0.9762,0.0238	-1204.20
0.9794,0.0206	-1204.18
0.6240,0.3760	-1208.73
0.9918,0.0082	-1204.07
0.9419,0.0581	-1204.50
0.9153,0.0847	-1204.74
0.9786,0.0214	-1204.18
0.9823,0.0177	-1204.15
0.5886,0.4114	-1210.19
0.9898,0.0102	-1204.09
0.9479,0.0521	-1204.45
0.9072,0.0928	-1204.82
0.9806,0.0194	-1204.17
0.9837,0.0163	-1204.14
0.5508,0.4492	-1210.78
0.9892,0.0108	-1204.10
0.9424,0.0576	-1204.49
0.9126,0.0874	-1204.77
0.9802,0.0198	-1204.17
0.9833,0.0167	-1204.14
0.6260,0.3740	-1208.69
0.9882,0.0118	-1204.10
0.9457,0.0543	-1204.47
0.9313,0.0687	-1204.60
0.9802,0.0198	-1204.17
0.9832,0.0168	-1204.14
0.6671,0.3329	-1208.63
0.9876,0.0124	-1204.11
0.9485,0.0515	-1204.44
0.9309,0.0691	-1204.60
0.9784,0.0216	-1204.18
0.9796,0.0204	-1204.17
0.6627,0.3373	-1208.01
0.9866,0.0134	-1204.12
0.9351,0.0649	-1204.56
0.9305,0.0695	-1207.20
0.9793,0.0207	-1204.18
0.9817,0.0183	-1204.16
0.6752,0.3248	-1207.79
0.9880,0.0120	-1204.11
0.9357,0.0643	-1204.56
0.9390,0.0610	-1204.52
0.9804,0.0196	-1204.17
0.9853,0.0147	-1204.13
0.6737,0.3263	-1208.54
0.9859,0.0141	-1204.12
0.9594,0.0406	-1204.35
0.9493,0.0507	-1204.43
0.9778,0.0222	-1204.19
0.9852,0.0148	-1204.13
0.7331,0.2669	-1206.88
0.9868,0.0132	-1204.11
0.9525,0.0475	-1204.41
0.9395,0.0605	-1207.26
0.9806,0.0194	-1204.17
0.9814,0.0186	-1204.16
0.7569,0.2431	-1207.68
0.9826,0.0174	-1204.15
0.9600,0.0400	-1204.34
0.9401,0.0599	-1204.52
0.9860,0.0140	-1204.12
0.9815,0.0185	-1204.16
0.7549,0.2451	-1206.57
0.9814,0.0186	-1204.16
0.9575,0.0425	-1204.36
0.9424,0.0576	-1204.49
0.9831,0.0169	-1204.15
0.9798,0.0202	-1204.17
0.7553,0.2447	-1207.70
0.9824,0.0176	-1204.15
0.9591,0.0409	-1207.50
0.9445,0.0555	-1204.48
0.9823,0.0177	-1204.15
0.9807,0.0193	-1204.17
0.7620,0.2380	-1207.64
0.9818,0.0182	-1204.16
0.9660,0.0340	-1204.29
0.9491,0.0509	-1204.43
0.9830,0.0170	-1204.15
0.9820,0.0180	-1204.15
0.8361,0.1639	-1205.56
0.9826,0.0174	-1208.18
0.9618,0.0382	-1204.32
0.9371,0.0629	-1207.24
0.9826,0.0174	-1204.15
0.9807,0.0193	-1204.17
0.8645,0.1355	-1207.11
0.9867,0.0133	-1204.12
0.9605,0.0395	-1204.34
0.9505,0.0495	-1204.42
0.9787,0.0213	-1204.18
0.9821,0.0179	-1204.15
0.8695,0.1305	-1205.20
0.9843,0.0157	-1204.14
0.9666,0.0334	-1204.28
0.9381,0.0619	-1204.53
0.9809,0.0191	-1204.16
0.9806,0.0194	-1204.17
0.8579,0.1421	-1208.92
0.9826,0.0174	-1204.15
0.9675,0.0325	-1204.28
0.9447,0.0553	-1207.31
0.9855,0.0145	-1204.13
0.9845,0.0155	-1204.13
0.8716,0.1284	-1207.09
0.9860,0.0140	-1204.12
0.9672,0.0328	-1204.28
0.9425,0.0575	-1204.49
0.9866,0.0134	-1204.12
0.9865,0.0135	-1204.12
0.8681,0.1319	-1205.21
0.9845,0.0155	-1204.13
0.9720,0.0280	-1204.24
0.9547,0.0453	-1204.39
0.9870,0.0130	-1204.11
0.9860,0.0140	-1204.12
0.8669,0.1331	-1205.23
0.9847,0.0153	-1204.13
0.9763,0.0237	-1204.20
0.9507,0.0493	-1204.42
0.9903,0.0097	-1204.09
0.9884,0.0116	-1204.10
0.8386,0.1614	-1205.53
0.9842,0.0158	-1204.14
0.9752,0.0248	-1204.21
0.9611,0.0389	-1204.33
0.9915,0.0085	-1204.08
0.9882,0.0118	-1204.10
0.8555,0.1445	-1207.13
0.9851,0.0149	-1204.13
0.9735,0.0265	-1204.23
0.9683,0.0317	-1204.27
0.9904,0.0096	-1204.09
0.9893,0.0107	-1204.09
0.8123,0.1877	-1205.84
0.9850,0.0150	-1204.13
0.9704,0.0296	-1204.25
0.9600,0.0400	-1204.34
0.9920,0.0080	-1204.07
0.9902,0.0098	-1204.09
0.7979,0.2021	-1207.39
0.9854,0.0146	-1204.13
0.9652,0.0348	-1204.30
0.9657,0.0343	-1204.29
0.9921,0.0079	-1204.07
0.9910,0.0090	-1204.08
0.8024,0.1976	-1205.96
0.9844,0.0156	-1204.13
0.9669,0.0331	-1204.28
0.9672,0.0328	-1204.28
0.9907,0.0093	-1204.08
0.9895,0.0105	-1204.09
0.8457,0.1543	-1205.46
0.9862,0.0138	-1204.12
0.9700,0.0300	-1204.25
0.9707,0.0293	-1204.25
0.9918,0.0082	-1204.07
0.9916,0.0084	-1204.08
0.8510,0.1490	-1208.88
0.9829,0.0171	-1204.15
0.9731,0.0269	-1207.82
0.9704,0.0296	-1204.25
0.9915,0.0085	-1204.08
0.9878,0.0122	-1204.11
0.8716,0.1284	-1207.09
0.9834,0.0166	-1204.14
0.9720,0.0280	-1204.24
0.9781,0.0219	-1204.19
0.9909,0.0091	-1204.08
0.9886,0.0114	-1204.10
0.8847,0.1153	-1205.04
0.9862,0.0138	-1204.12
0.9705,0.0295	-1207.74
0.9772,0.0228	-1204.19
0.9904,0.0096	-1204.09
0.9873,0.0127	-1204.11
0.8848,0.1152	-1207.08
0.9873,0.0127	-1204.11
0.9710,0.0290	-1204.25
0.9766,0.0234	-1204.20
0.9902,0.0098	-1204.09
0.9892,0.0108	-1204.10
0.8847,0.1153	-1207.08
0.9911,0.0089	-1204.08
0.9736,0.0264	-1204.22
0.9775,0.0225	-1204.19
0.9895,0.0105	-1204.09
0.9896,0.0104	-1204.09
0.8907,0.1093	-1204.98
0.9902,0.0098	-1204.09
0.9752,0.0248	-1204.21
0.9773,0.0227	-1204.19
0.9919,0.0081	-1204.07
0.9885,0.0115	-1204.10
0.8981,0.1019	-1204.91
0.9913,0.0087	-1204.08
0.9794,0.0206	-1204.18
0.9726,0.0274	-1204.23
0.9911,0.0089	-1204.08
0.9887,0.0113	-1204.10
0.9077,0.0923	-1204.82
0.9898,0.0102	-1204.09
0.9787,0.0213	-1204.18
0.9716,0.0284	-1204.24
0.9918,0.0082	-1204.07
0.9883,0.0117	-1204.10
0.8853,0.1147	-1207.08
0.9897,0.0103	-1204.09
0.9789,0.0211	-1204.18
0.9737,0.0263	-1204.22
0.9933,0.0067	-1204.06
0.9894,0.0106	-1204.09
0.8678,0.1322	-1207.10
0.9913,0.0087	-1204.08
0.9828,0.0172	-1204.15
0.9681,0.0319	-1204.27
0.9906,0.0094	-1204.08
0.9886,0.0114	-1204.10
0.8626,0.1374	-1205.27
0.9923,0.0077	-1204.07
0.9844,0.0156	-1204.13
0.9741,0.0259	-1204.22
0.9905,0.0095	-1204.08
0.9895,0.0105	-1204.09
0.8173,0.1827	-1207.28
0.9930,0.0070	-1209.02
0.9831,0.0169	-1204.14
0.9717,0.0283	-1204.24
0.9902,0.0098	-1204.09
0.9885,0.0115	-1204.10
0.8141,0.1859	-1207.29
0.9936,0.0064	-1204.06
0.9789,0.0211	-1204.18
0.9793,0.0207	-1204.18
0.9915,0.0085	-1204.08
0.9880,0.0120	-1204.11
0.7928,0.2072	-1207.42
0.9938,0.0062	-1204.06
0.9736,0.0264	-1204.22
0.9834,0.0166	-1204.14
0.9880,0.0120	-1204.11
0.9910,0.0090	-1204.08
0.7845,0.2155	-1207.47
0.9919,0.0081	-1204.07
0.9692,0.0308	-1204.26
0.9839,0.0161	-1204.14
0.9857,0.0143	-1204.12
0.9895,0.0105	-1204.09
0.7615,0.2385	-1207.64
0.9913,0.0087	-1204.08
0.9739,0.0261	-1204.22
0.9785,0.0215	-1204.18
0.9858,0.0142	-1204.12
0.9887,0.0113	-1204.10
0.7835,0.2165	-1207.48
0.9890,0.0110	-1204.10
0.9775,0.0225	-1204.19
0.9744,0.0256	-1204.22
0.9835,0.0165	-1208.23
0.9904,0.0096	-1204.09
0.8042,0.1958	-1208.76
0.9913,0.0087	-1204.08
0.9786,0.0214	-1204.18
0.9689,0.0311	-1204.26
0.9845,0.0155	-1204.13
0.9878,0.0122	-1204.11
0.7829,0.2171	-1207.48
0.9884,0.0116	-1204.10
0.9773,0.0227	-1204.19
0.9649,0.0351	-1204.30
0.9866,0.0134	-1204.12
0.9877,0.0123	-1204.11
0.7883,0.2117	-1206.13
0.9887,0.0113	-1204.10
0.9771,0.0229	-1204.20
0.9555,0.0445	-1204.38
0.9853,0.0147	-1204.13
0.9864,0.0136	-1204.12
0.7570,0.2430	-1206.54
0.9885,0.0115	-1204.10
0.9762,0.0238	-1204.20
0.9472,0.0528	-1207.34
0.9842,0.0158	-1204.14
0.9878,0.0122	-1204.11
0.6896,0.3104	-1207.55
0.9894,0.0106	-1204.09
0.9739,0.0261	-1207.84
0.9511,0.0489	-1204.42
0.9792,0.0208	-1204.18
0.9894,0.0106	-1204.09
0.7125,0.2875	-1207.19
0.9900,0.0100	-1204.09
0.9834,0.0166	-1204.14
0.9451,0.0549	-1204.47
0.9763,0.0237	-1204.20
0.9903,0.0097	-1204.09
0.7493,0.2507	-1207.75
0.9929,0.0071	-1204.07
0.9834,0.0166	-1204.14
0.9444,0.0556	-1204.48
0.9711,0.0289	-1204.24
0.9876,0.0124	-1204.11
0.7748,0.2252	-1206.31
0.9926,0.0074	-1204.07
0.9809,0.0191	-1204.16
0.9456,0.0544	-1204.47
0.9702,0.0298	-1204.25
0.9873,0.0127	-1204.11
0.7687,0.2313	-1206.39
0.9925,0.0075	-1204.07
0.9814,0.0186	-1204.16
0.9440,0.0560	-1204.48
0.9679,0.0321	-1204.27
0.9858,0.0142	-1204.12
0.7111,0.2889	-1207.21
0.9916,0.0084	-1204.08
0.9803,0.0197	-1204.17
0.9341,0.0659	-1204.57
0.9687,0.0313	-1204.27
0.9867,0.0133	-1204.12
0.7545,0.2455	-1206.58
0.9916,0.0084	-1204.08
0.9783,0.0217	-1204.19
0.9120,0.0880	-1204.78
0.9707,0.0293	-1204.25
0.9867,0.0133	-1204.12
0.7896,0.2104	-1207.44
0.9926,0.0074	-1204.07
0.9812,0.0188	-1204.16
0.9126,0.0874	-1204.77
0.9656,0.0344	-1204.29
0.9836,0.0164	-1204.14
0.8103,0.1897	-1208.77
0.9936,0.0064	-1204.06
0.9825,0.0175	-1204.15
0.9162,0.0838	-1207.13
0.9641,0.0359	-1204.30
0.9834,0.0166	-1204.14
0.7879,0.2121	-1206.14
0.9936,0.0064	-1204.06
0.9821,0.0179	-1204.15
0.9210,0.0790	-1204.69
0.9629,0.0371	-1204.31
0.9842,0.0158	-1204.14
0.7513,0.2487	-1207.73
0.9919,0.0081	-1204.07
0.9859,0.0141	-1204.12
0.9251,0.0749	-1204.65
0.9620,0.0380	-1204.32
0.9832,0.0168	-1204.14
0.7154,0.2846	-1208.99
0.9922,0.0078	-1204.07
0.9839,0.0161	-1204.14
0.9229,0.0771	-1204.67
0.9620,0.0380	-1204.32
0.9819,0.0181	-1204.15
0.6660,0.3340	-1208.64
0.9924,0.0076	-1204.07
0.9853,0.0147	-1208.33
0.9290,0.0710	-1204.62
0.9556,0.0444	-1204.38
0.9809,0.0191	-1204.16
0.6839,0.3161	-1207.65
0.9913,0.0087	-1204.08
0.9825,0.0175	-1204.15
0.9394,0.0606	-1207.26
0.9562,0.0438	-1204.37
0.9847,0.0153	-1204.13
0.7116,0.2884	-1207.20
0.9924,0.0076	-1204.07
0.9791,0.0209	-1204.18
0.9460,0.0540	-1204.46
0.9554,0.0446	-1204.38
0.9857,0.0143	-1204.12
0.6598,0.3402	-1208.72
0.9917,0.0083	-1204.07
0.9712,0.0288	-1204.24
0.9534,0.0466	-1204.40
0.9563,0.0437	-1204.37
0.9894,0.0106	-1204.09
0.6739,0.3261	-1207.82
0.9931,0.0069	-1209.04
0.9665,0.0335	-1204.28
0.9627,0.0373	-1204.32
0.9448,0.0552	-1207.31
0.9889,0.0111	-1204.10
0.6604,0.3396	-1208.72
0.9916,0.0084	-1204.08
0.9657,0.0343	-1204.29
0.9707,0.0293	-1204.25
0.9263,0.0737	-1204.64
0.9890,0.0110	-1204.10
0.6870,0.3130	-1208.38
0.9905,0.0095	-1204.08
0.9621,0.0379	-1204.32
0.9705,0.0295	-1204.25
0.9301,0.0699	-1204.61
0.9881,0.0119	-1204.10
0.7333,0.2667	-1208.90
0.9919,0.0081	-1204.07
0.9576,0.0424	-1204.36
0.9677,0.0323	-1204.27
0.9285,0.0715	-1204.62
0.9892,0.0108	-1208.62
0.7439,0.2561	-1206.73
0.9883,0.0117	-1208.54
0.9629,0.0371	-1207.57
0.9707,0.0293	-1204.25
0.9317,0.0683	-1204.59
0.9893,0.0107	-1204.09
0.7622,0.2378	-1207.64
0.9875,0.0125	-1204.11
0.9619,0.0381	-1207.55
0.9726,0.0274	-1204.23
0.9368,0.0632	-1204.54
0.9871,0.0129	-1204.11
0.7871,0.2129	-1206.15
0.9864,0.0136	-1204.12
0.9550,0.0450	-1204.38
0.9688,0.0312	-1204.26
0.9375,0.0625	-1207.25
0.9864,0.0136	-1204.12
0.7675,0.2325	-1206.40
0.9865,0.0135	-1204.12
0.9675,0.0325	-1204.28
0.9691,0.0309	-1204.26
0.9483,0.0517	-1204.44
0.9824,0.0176	-1204.15
0.7602,0.2398	-1207.65
0.9848,0.0152	-1204.13
0.9531,0.0469	-1204.40
0.9727,0.0273	-1204.23
0.9581,0.0419	-1204.36
0.9842,0.0158	-1204.14
0.7363,0.2637	-1207.86
0.9897,0.0103	-1204.09
0.9511,0.0489	-1204.42
0.9748,0.0252	-1204.21
0.9530,0.0470	-1204.40
0.9849,0.0151	-1204.13
0.7631,0.2369	-1206.46
0.9861,0.0139	-1204.12
0.9567,0.0433	-1204.37
0.9697,0.0303	-1204.26
0.9676,0.0324	-1204.27
0.9803,0.0197	-1208.08
0.7314,0.2686	-1208.91
0.9851,0.0149	-1204.13
0.9476,0.0524	-1204.45
0.9679,0.0321	-1204.27
0.9680,0.0320	-1207.68
0.9766,0.0234	-1204.20
0.7114,0.2886	-1207.21
0.9864,0.0136	-1204.12
0.9427,0.0573	-1204.49
0.9679,0.0321	-1207.68
0.9645,0.0355	-1204.30
0.9735,0.0265	-1204.23
0.7575,0.2425	-1207.68
0.9869,0.0131	-1204.11
0.9376,0.0624	-1204.54
0.9657,0.0343	-1204.29
0.9554,0.0446	-1207.44
0.9764,0.0236	-1204.20
0.7648,0.2352	-1207.62
0.9876,0.0124	-1204.11
0.9357,0.0643	-1204.55
0.9737,0.0263	-1204.22
0.9647,0.0353	-1204.30
0.9799,0.0201	-1204.17
0.7752,0.2248	-1208.78
0.9867,0.0133	-1204.12
0.9217,0.0783	-1204.68
0.9691,0.0309	-1204.26
0.9672,0.0328	-1204.28
0.9779,0.0221	-1207.98
0.8010,0.1990	-1205.98
0.9878,0.0122	-1204.11
0.9207,0.0793	-1207.14
0.9693,0.0307	-1204.26
0.9587,0.0413	-1204.35
0.9860,0.0140	-1204.12
0.8098,0.1902	-1205.87
0.9856,0.0144	-1204.12
0.9194,0.0806	-1204.70
0.9637,0.0363	-1204.31
0.9532,0.0468	-1204.40
0.9881,0.0119	-1204.10
0.8118,0.1882	-1207.31
0.9866,0.0134	-1204.12
0.9273,0.0727	-1207.18
0.9676,0.0324	-1204.27
0.9468,0.0532	-1204.46
0.9864,0.0136	-1204.12
0.8525,0.1475	-1205.38
0.9877,0.0123	-1204.11
0.9039,0.0961	-1207.09
0.9696,0.0304	-1204.26
0.9548,0.0452	-1204.39
0.9859,0.0141	-1204.12
0.8510,0.1490	-1207.14
0.9872,0.0128	-1208.46
0.9025,0.0975	-1209.32
0.9689,0.0311	-1207.70
0.9520,0.0480	-1204.41
0.9872,0.0128	-1204.11
0.8184,0.1816	-1207.27
0.9876,0.0124	-1204.11
0.9158,0.0842	-1204.74
0.9662,0.0338	-1207.64
0.9509,0.0491	-1204.42
0.9884,0.0116	-1204.10
0.8215,0.1785	-1207.26
0.9866,0.0134	-1204.12
0.9135,0.0865	-1204.76
0.9703,0.0297	-1204.25
0.9469,0.0531	-1204.45
0.9872,0.0128	-1204.11
0.8185,0.1815	-1205.77
0.9853,0.0147	-1204.13
0.9081,0.0919	-1204.81
0.9713,0.0287	-1204.24
0.9595,0.0405	-1204.34
0.9899,0.0101	-1204.09
0.8251,0.1749	-1207.24
0.9872,0.0128	-1204.11
0.8951,0.1049	-1207.08
0.9734,0.0266	-1204.23
0.9521,0.0479	-1204.41
0.9904,0.0096	-1204.09
0.8434,0.1566	-1207.16
0.9868,0.0132	-1204.11
0.8889,0.1111	-1205.00
0.9740,0.0260	-1204.22
0.9556,0.0444	-1204.38
0.9898,0.0102	-1204.09
0.8386,0.1614	-1205.53
0.9864,0.0136	-1204.12
0.8529,0.1471	-1207.13
0.9708,0.0292	-1204.25
0.9450,0.0550	-1204.47
0.9870,0.0130	-1204.11
0.8365,0.1635	-1207.19
0.9850,0.0150	-1204.13
0.8611,0.1389	-1208.94
0.9738,0.0262	-1204.22
0.9471,0.0529	-1204.45
0.9851,0.0149	-1204.13
0.8327,0.1673	-1205.60
0.9832,0.0168	-1204.14
0.8433,0.1567	-1207.17
0.9714,0.0286	-1204.24
0.9294,0.0706	-1204.61
0.9851,0.0149	-1204.13
0.8647,0.1353	-1205.25
0.9855,0.0145	-1204.13
0.8223,0.1777	-1207.25
0.9761,0.0239	-1204.20
0.9002,0.0998	-1204.89
0.9792,0.0208	-1204.18
0.8559,0.1441	-1205.34
0.9815,0.0185	-1204.16
0.8100,0.1900	-1205.87
0.9723,0.0277	-1204.24
0.9120,0.0880	-1204.78
0.9814,0.0186	-1204.16
0.8458,0.1542	-1205.45
0.9772,0.0228	-1204.19
0.8212,0.1788	-1205.73
0.9682,0.0318	-1204.27
0.9011,0.0989	-1204.88
0.9810,0.0190	-1208.10
0.8203,0.1797	-1205.74
0.9781,0.0219	-1204.19
0.8377,0.1623	-1205.55
0.9639,0.0361	-1207.59
0.8837,0.1163	-1205.05
0.9811,0.0189	-1204.16
0.8152,0.1848	-1208.77
0.9776,0.0224	-1204.19
0.7968,0.2032	-1206.03
0.9543,0.0457	-1204.39
0.8958,0.1042	-1204.93
0.9776,0.0224	-1204.19
0.8217,0.1783	-1208.78
0.9706,0.0294	-1204.25
0.8040,0.1960	-1207.35
0.9528,0.0472	-1204.40
0.8631,0.1369	-1207.11
0.9724,0.0276	-1204.23
0.7677,0.2323	-1206.40
0.9738,0.0262	-1204.22
0.7830,0.2170	-1207.48
0.9559,0.0441	-1207.45
0.8689,0.1311	-1205.21
0.9765,0.0235	-1204.20
0.8226,0.1774	-1205.72
0.9769,0.0231	-1204.20
0.7965,0.2035	-1208.76
0.9639,0.0361	-1204.31
0.8399,0.1601	-1205.52
0.9788,0.0212	-1208.01
0.8310,0.1690	-1205.62
0.9786,0.0214	-1204.18
0.7744,0.2256	-1206.31
0.9636,0.0364	-1204.31
0.8598,0.1402	-1205.30
0.9809,0.0191	-1208.10
0.8312,0.1688	-1207.21
0.9799,0.0201	-1204.17
0.7480,0.2520	-1207.76
0.9579,0.0421	-1207.48
0.8537,0.1463	-1205.37
0.9806,0.0194	-1208.09
0.8347,0.1653	-1207.20
0.9794,0.0206	-1204.18
0.8003,0.1997	-1207.37
0.9570,0.0430	-1204.37
0.8734,0.1266	-1205.16
0.9765,0.0235	-1204.20
0.8418,0.1582	-1205.50
0.9756,0.0244	-1204.21
0.8065,0.1935	-1207.34
0.9548,0.0452	-1207.44
0.8900,0.1100	-1204.99
0.9769,0.0231	-1204.20
0.8567,0.1433	-1205.34
0.9693,0.0307	-1204.26
0.8542,0.1458	-1205.36
0.9613,0.0387	-1204.33
0.8928,0.1072	-1204.96
0.9754,0.0246	-1204.21
0.8620,0.1380	-1205.28
0.9718,0.0282	-1204.24
0.8516,0.1484	-1205.39
0.9645,0.0355	-1204.30
0.8644,0.1356	-1205.25
0.9787,0.0213	-1204.18
0.8775,0.1225	-1205.12
0.9677,0.0323	-1204.27
0.8321,0.1679	-1205.61
0.9617,0.0383	-1204.33
0.8847,0.1153	-1205.04
0.9824,0.0176	-1204.15
0.8601,0.1399	-1207.12
0.9657,0.0343	-1204.29
0.8424,0.1576	-1205.49
0.9549,0.0451	-1204.38
0.8758,0.1242	-1205.13
0.9861,0.0139	-1204.12
0.8615,0.1385	-1205.28
0.9644,0.0356	-1204.30
0.8602,0.1398	-1205.30
0.9550,0.0450	-1207.44
0.9013,0.0987	-1204.88
0.9881,0.0119	-1204.10
0.8817,0.1183	-1205.07
0.9523,0.0477	-1207.40
0.8709,0.1291	-1207.09
0.9577,0.0423	-1204.36
0.9144,0.0856	-1204.75
0.9870,0.0130	-1204.11
0.8864,0.1136	-1205.03
0.9514,0.0486	-1204.42
0.9014,0.0986	-1204.88
0.9579,0.0421	-1204.36
0.9196,0.0804	-1204.70
0.9886,0.0114	-1204.10
0.9037,0.0963	-1204.86
0.9453,0.0547	-1204.47
0.9011,0.0989	-1204.88
0.9690,0.0310	-1204.26
0.9253,0.0747	-1207.17
0.9856,0.0144	-1204.12
0.9020,0.0980	-1204.87
0.9599,0.0401	-1204.34
0.9118,0.0882	-1204.78
0.9725,0.0275	-1204.23
0.9118,0.0882	-1204.78
0.9861,0.0139	-1208.38
0.8872,0.1128	-1205.02
0.9678,0.0322	-1204.27
0.9071,0.0929	-1204.82
0.9712,0.0288	-1204.24
0.9191,0.0809	-1204.71
0.9869,0.0131	-1204.11
0.8955,0.1045	-1207.08
0.9651,0.0349	-1204.30
0.9168,0.0832	-1204.73
0.9749,0.0251	-1204.21
0.9205,0.0795	-1207.14
0.9879,0.0121	-1204.11
0.9002,0.0998	-1204.89
0.9434,0.0566	-1204.49
0.9180,0.0820	-1204.72
0.9767,0.0233	-1204.20
0.9138,0.0862	-1204.76
0.9887,0.0113	-1204.10
0.9208,0.0792	-1204.69
0.9375,0.0625	-1207.25
0.9074,0.0926	-1204.82
0.9813,0.0187	-1204.16
0.9140,0.0860	-1204.76
0.9910,0.0090	-1204.08
0.9235,0.0765	-1204.67
0.9438,0.0562	-1204.48
0.8987,0.1013	-1204.90
0.9787,0.0213	-1204.18
0.9292,0.0708	-1204.61
0.9904,0.0096	-1204.09
0.9157,0.0843	-1204.74
0.9393,0.0607	-1204.52
0.9071,0.0929	-1204.82
0.9828,0.0172	-1204.15
0.9387,0.0613	-1207.26
0.9915,0.0085	-1204.08
0.9228,0.0772	-1207.15
0.9176,0.0824	-1204.72
0.9066,0.0934	-1204.83
0.9821,0.0179	-1204.15
0.9460,0.0540	-1204.46
0.9925,0.0075	-1208.96
0.9286,0.0714	-1204.62
0.9215,0.0785	-1204.69
0.9096,0.0904	-1204.80
0.9768,0.0232	-1204.20
0.9385,0.0615	-1204.53
0.9941,0.0059	-1204.06
0.9278,0.0722	-1204.63
0.9113,0.0887	-1204.78
0.8745,0.1255	-1207.09
0.9799,0.0201	-1204.17
0.9312,0.0688	-1207.20
0.9932,0.0068	-1204.06
0.9223,0.0777	-1204.68
0.9001,0.0999	-1207.09
0.8998,0.1002	-1204.89
0.9789,0.0211	-1204.18
0.9415,0.0585	-1204.50
0.9925,0.0075	-1204.07
0.9194,0.0806	-1204.71
0.8853,0.1147	-1205.04
0.8952,0.1048	-1204.94
0.9797,0.0203	-1204.17
0.9571,0.0429	-1204.37
0.9925,0.0075	-1204.07
0.9104,0.0896	-1207.11
0.8400,0.1600	-1208.84
0.9136,0.0864	-1204.76
0.9818,0.0182	-1204.16
0.9581,0.0419	-1204.36
0.9928,0.0072	-1204.07
0.8901,0.1099	-1204.99
0.8270,0.1730	-1205.67
0.9301,0.0699	-1204.61
0.9795,0.0205	-1204.17
0.9607,0.0393	-1204.33
0.9915,0.0085	-1204.08
0.8778,0.1222	-1205.11
0.8788,0.1212	-1205.10
0.9439,0.0561	-1204.48
0.9800,0.0200	-1204.17
0.9530,0.0470	-1204.40
0.9909,0.0091	-1204.08
0.8916,0.1084	-1204.97
0.9013,0.0987	-1204.88
0.9405,0.0595	-1207.27
0.9755,0.0245	-1204.21
0.9540,0.0460	-1204.39
0.9898,0.0102	-1204.09
0.8932,0.1068	-1204.96
0.8982,0.1018	-1204.91
0.9380,0.0620	-1204.53
0.9759,0.0241	-1204.21
0.9536,0.0464	-1204.40
0.9909,0.0091	-1204.08
0.8662,0.1338	-1207.10
0.9169,0.0831	-1204.73
0.9494,0.0506	-1204.43
0.9664,0.0336	-1204.29
0.9465,0.0535	-1204.46
0.9862,0.0138	-1204.12
0.8686,0.1314	-1205.21
0.9123,0.0877	-1204.77
0.9630,0.0370	-1207.57
0.9741,0.0259	-1204.22
0.9124,0.0876	-1204.77
0.9865,0.0135	-1204.12
0.8614,0.1386	-1205.29
0.8782,0.1218	-1205.11
0.9702,0.0298	-1204.25
0.9785,0.0215	-1208.00
0.9275,0.0725	-1207.18
0.9864,0.0136	-1204.12
0.8384,0.1616	-1205.54
0.8647,0.1353	-1207.11
0.9689,0.0311	-1204.26
0.9807,0.0193	-1204.17
0.9284,0.0716	-1204.62
0.9843,0.0157	-1204.13
0.8727,0.1273	-1209.02
0.8504,0.1496	-1205.40
0.9728,0.0272	-1204.23
0.9732,0.0268	-1204.23
0.9154,0.0846	-1204.74
0.9814,0.0186	-1204.16
0.8649,0.1351	-1205.25
0.8482,0.1518	-1207.15
0.9762,0.0238	-1204.20
0.9689,0.0311	-1204.26
0.9151,0.0849	-1204.75
0.9785,0.0215	-1204.18
0.8419,0.1581	-1208.84
0.8677,0.1323	-1205.22
0.9744,0.0256	-1204.22
0.9702,0.0298	-1204.25
0.9083,0.0917	-1204.81
0.9769,0.0231	-1204.20
0.8508,0.1492	-1205.40
0.8908,0.1092	-1207.08
0.9712,0.0288	-1204.24
0.9718,0.0282	-1204.24
0.8982,0.1018	-1204.91
0.9772,0.0228	-1204.19
0.8295,0.1705	-1208.80
0.8989,0.1011	-1204.90
0.9725,0.0275	-1204.23
0.9764,0.0236	-1204.20
0.9107,0.0893	-1207.11
0.9838,0.0162	-1204.14
0.8723,0.1277	-1205.17
0.8914,0.1086	-1204.98
0.9709,0.0291	-1204.25
0.9772,0.0228	-1204.19
0.9196,0.0804	-1204.70
0.9793,0.0207	-1204.18
0.8921,0.1079	-1204.97
0.9041,0.0959	-1204.85
0.9683,0.0317	-1204.27
0.9766,0.0234	-1204.20
0.9267,0.0733	-1204.64
0.9835,0.0165	-1204.14
0.8705,0.1295	-1205.19
0.9298,0.0702	-1204.61
0.9721,0.0279	-1204.24
0.9768,0.0232	-1204.20
0.9021,0.0979	-1207.09
0.9828,0.0172	-1204.15
0.8676,0.1324	-1205.22
0.9130,0.0870	-1204.77
0.9711,0.0289	-1204.25
0.9768,0.0232	-1204.20
0.9233,0.0767	-1207.16
0.9857,0.0143	-1204.12
0.8777,0.1223	-1205.11
0.9069,0.0931	-1204.82
0.9693,0.0307	-1204.26
0.9746,0.0254	-1204.22
0.9442,0.0558	-1204.48
0.9868,0.0132	-1204.12
0.8885,0.1115	-1207.08
0.8913,0.1087	-1207.08
0.9681,0.0319	-1204.27
0.9812,0.0188	-1204.16
0.9454,0.0546	-1204.47
0.9872,0.0128	-1204.11
0.8935,0.1065	-1204.95
0.8957,0.1043	-1204.93
0.9758,0.0242	-1207.90
0.9781,0.0219	-1204.19
0.9398,0.0602	-1207.27
0.9859,0.0141	-1204.12
0.9113,0.0887	-1204.78
0.8997,0.1003	-1204.89
0.9717,0.0283	-1204.24
0.9727,0.0273	-1204.23
0.9380,0.0620	-1204.53
0.9845,0.0155	-1204.13
0.9161,0.0839	-1207.13
0.9237,0.0763	-1204.67
0.9758,0.0242	-1204.21
0.9696,0.0304	-1204.26
0.9474,0.0526	-1204.45
0.9845,0.0155	-1204.13
0.9141,0.0859	-1204.76
0.9243,0.0757	-1204.66
0.9690,0.0310	-1204.26
0.9746,0.0254	-1204.22
0.9353,0.0647	-1204.56
0.9831,0.0169	-1204.15
0.9299,0.0701	-1204.61
0.9080,0.0920	-1204.81
0.9627,0.0373	-1204.32
0.9756,0.0244	-1204.21
0.9299,0.0701	-1204.61
0.9837,0.0163	-1204.14
0.9298,0.0702	-1207.19
0.9079,0.0921	-1204.82
0.9625,0.0375	-1204.32
0.9700,0.0300	-1204.25
0.9286,0.0714	-1204.62
0.9858,0.0142	-1204.12
0.9363,0.0637	-1207.24
0.9192,0.0808	-1204.71
0.9632,0.0368	-1204.31
0.9761,0.0239	-1204.20
0.9255,0.0745	-1204.65
0.9836,0.0164	-1204.14
0.9326,0.0674	-1204.58
0.9154,0.0846	-1207.12
0.9669,0.0331	-1204.28
0.9735,0.0265	-1204.23
0.9322,0.0678	-1204.59
0.9880,0.0120	-1204.10
0.9422,0.0578	-1204.50
0.9228,0.0772	-1204.67
0.9730,0.0270	-1204.23
0.9731,0.0269	-1204.23
0.9352,0.0648	-1204.56
0.9894,0.0106	-1204.09
0.9451,0.0549	-1207.32
0.9342,0.0658	-1204.57
0.9751,0.0249	-1204.21
0.9714,0.0286	-1204.24
0.9191,0.0809	-1204.71
0.9909,0.0091	-1204.08
0.9429,0.0571	-1204.49
0.9401,0.0599	-1204.52
0.9686,0.0314	-1204.27
0.9684,0.0316	-1204.27
0.9073,0.0927	-1204.82
0.9913,0.0087	-1204.08
0.9444,0.0556	-1204.48
0.9513,0.0487	-1204.42
0.9709,0.0291	-1204.25
0.9649,0.0351	-1204.30
0.8983,0.1017	-1204.91
0.9903,0.0097	-1204.09
0.9507,0.0493	-1204.42
0.9457,0.0543	-1204.47
0.9637,0.0363	-1204.31
0.9684,0.0316	-1204.27
0.8495,0.1505	-1205.41
0.9894,0.0106	-1204.09
0.9387,0.0613	-1207.26
0.9458,0.0542	-1204.46
0.9498,0.0502	-1204.43
0.9745,0.0255	-1204.22
0.8458,0.1542	-1205.45
0.9926,0.0074	-1204.07
0.9308,0.0692	-1204.60
0.9354,0.0646	-1204.56
0.9483,0.0517	-1204.44
0.9733,0.0267	-1207.82
0.8428,0.1572	-1205.49
0.9924,0.0076	-1204.07
0.9288,0.0712	-1204.62
0.9402,0.0598	-1204.51
0.9488,0.0512	-1207.36
0.9701,0.0299	-1204.25
0.8278,0.1722	-1207.23
0.9926,0.0074	-1204.07
0.9385,0.0615	-1204.53
0.9562,0.0438	-1204.37
0.9575,0.0425	-1204.36
0.9692,0.0308	-1204.26
0.8057,0.1943	-1205.92
0.9923,0.0077	-1204.07
0.9094,0.0906	-1204.80
0.9412,0.0588	-1204.51
0.9505,0.0495	-1204.42
0.9746,0.0254	-1204.22
0.8162,0.1838	-1205.79
0.9917,0.0083	-1204.07
0.9125,0.0875	-1207.12
0.9406,0.0594	-1204.51
0.9501,0.0499	-1204.43
0.9795,0.0205	-1204.18
0.8644,0.1356	-1205.25
0.9924,0.0076	-1204.07
0.9262,0.0738	-1204.64
0.9445,0.0555	-1207.31
0.9490,0.0510	-1204.44
0.9786,0.0214	-1204.18
0.8513,0.1487	-1207.14
0.9916,0.0084	-1204.08
0.9405,0.0595	-1204.51
0.9511,0.0489	-1204.42
0.9603,0.0397	-1204.34
0.9849,0.0151	-1204.13
0.8742,0.1258	-1205.15
0.9916,0.0084	-1204.08
0.9343,0.0657	-1207.22
0.9407,0.0593	-1204.51
0.9616,0.0384	-1204.33
0.9860,0.0140	-1208.37
0.8729,0.1271	-1205.16
0.9910,0.0090	-1204.08
0.9195,0.0805	-1204.70
0.9402,0.0598	-1204.51
0.9682,0.0318	-1207.69
0.9854,0.0146	-1204.13
0.8869,0.1131	-1205.02
0.9914,0.0086	-1204.08
0.9283,0.0717	-1204.62
0.9163,0.0837	-1204.73
0.9681,0.0319	-1204.27
0.9870,0.0130	-1204.11
0.8997,0.1003	-1204.89
0.9928,0.0072	-1204.07
0.9356,0.0644	-1204.56
0.9227,0.0773	-1204.67
0.9692,0.0308	-1204.26
0.9868,0.0132	-1204.11
0.8714,0.1286	-1205.18
0.9926,0.0074	-1204.07
0.9402,0.0598	-1204.51
0.9233,0.0767	-1207.16
0.9754,0.0246	-1204.21
0.9854,0.0146	-1208.34
0.8473,0.1527	-1205.44
0.9934,0.0066	-1204.06
0.9450,0.0550	-1207.32
0.9250,0.0750	-1204.65
0.9748,0.0252	-1207.87
0.9869,0.0131	-1204.11
0.8421,0.1579	-1205.49
0.9929,0.0071	-1204.06
0.9355,0.0645	-1207.23
0.9249,0.0751	-1204.65
0.9747,0.0253	-1204.21
0.9884,0.0116	-1204.10
0.8391,0.1609	-1207.18
0.9926,0.0074	-1204.07
0.9310,0.0690	-1204.60
0.9369,0.0631	-1207.24
0.9701,0.0299	-1204.25
0.9897,0.0103	-1204.09
0.8333,0.1667	-1208.81
0.9927,0.0073	-1204.07
0.9422,0.0578	-1204.50
0.9324,0.0676	-1204.58
0.9720,0.0280	-1204.24
0.9884,0.0116	-1204.10
0.8621,0.1379	-1207.11
0.9909,0.0091	-1204.08
0.9461,0.0539	-1204.46
0.9409,0.0591	-1204.51
0.9758,0.0242	-1204.21
0.9864,0.0136	-1204.12
0.8626,0.1374	-1207.11
0.9908,0.0092	-1204.08
0.9446,0.0554	-1204.47
0.9330,0.0670	-1204.58
0.9757,0.0243	-1204.21
0.9858,0.0142	-1204.12
0.8343,0.1657	-1205.58
0.9890,0.0110	-1208.59
0.9470,0.0530	-1204.45
0.9279,0.0721	-1204.63
0.9746,0.0254	-1204.22
0.9873,0.0127	-1204.11
0.8684,0.1316	-1205.21
0.9905,0.0095	-1204.08
0.9414,0.0586	-1204.50
0.9329,0.0671	-1207.21
0.9745,0.0255	-1204.22
0.9872,0.0128	-1204.11
0.8715,0.1285	-1205.18
0.9922,0.0078	-1204.07
0.9517,0.0483	-1204.41
0.9189,0.0811	-1204.71
0.9751,0.0249	-1204.21
0.9861,0.0139	-1204.12
0.8835,0.1165	-1209.11
0.9933,0.0067	-1204.06
0.9424,0.0576	-1204.49
0.9369,0.0631	-1204.54
0.9741,0.0259	-1204.22
0.9869,0.0131	-1204.11
0.8443,0.1557	-1207.16
0.9942,0.0058	-1204.05
0.9471,0.0529	-1204.45
0.9290,0.0710	-1204.62
0.9767,0.0233	-1204.20
0.9866,0.0134	-1204.12
0.8727,0.1273	-1205.17
0.9948,0.0052	-1204.05
0.9371,0.0629	-1204.54
0.9274,0.0726	-1204.63
0.9689,0.0311	-1204.26
0.9874,0.0126	-1204.11
0.8710,0.1290	-1207.09
0.9955,0.0045	-1204.04
0.9290,0.0710	-1204.62
0.9373,0.0627	-1204.54
0.9683,0.0317	-1204.27
0.9842,0.0158	-1204.14
0.8669,0.1331	-1205.23
0.9960,0.0040	-1204.04
0.9418,0.0582	-1204.50
0.9384,0.0616	-1204.53
0.9703,0.0297	-1204.25
0.9826,0.0174	-1204.15
0.8702,0.1298	-1205.19
0.9957,0.0043	-1204.04
0.9358,0.0642	-1204.55
0.9438,0.0562	-1204.48
0.9618,0.0382	-1204.32
0.9843,0.0157	-1204.14
0.8636,0.1364	-1207.11
0.9968,0.0032	-1204.03
0.9312,0.0688	-1204.60
0.9462,0.0538	-1207.33
0.9633,0.0367	-1204.31
0.9866,0.0134	-1204.12
0.8499,0.1501	-1205.41
0.9967,0.0033	-1204.03
0.9323,0.0677	-1204.59
0.9471,0.0529	-1204.45
0.9625,0.0375	-1204.32
0.9854,0.0146	-1208.34
0.8698,0.1302	-1207.10
0.9964,0.0036	-1204.04
0.9240,0.0760	-1207.16
0.9438,0.0562	-1204.48
0.9535,0.0465	-1207.42
0.9869,0.0131	-1204.11
0.8612,0.1388	-1207.11
0.9964,0.0036	-1204.04
0.9244,0.0756	-1207.16
0.9422,0.0578	-1204.50
0.9530,0.0470	-1204.40
0.9855,0.0145	-1204.13
0.8629,0.1371	-1207.11
0.9962,0.0038	-1204.04
0.9221,0.0779	-1204.68
0.9515,0.0485	-1204.41
0.9552,0.0448	-1204.38
0.9856,0.0144	-1204.12
0.8479,0.1521	-1207.15
0.9967,0.0033	-1204.03
0.9383,0.0617	-1204.53
0.9513,0.0487	-1204.42
0.9510,0.0490	-1204.42
0.9863,0.0137	-1204.12
0.8518,0.1482	-1205.39
0.9967,0.0033	-1204.03
0.9415,0.0585	-1204.50
0.9483,0.0517	-1204.44
0.9484,0.0516	-1204.44
0.9878,0.0122	-1204.11
0.8500,0.1500	-1207.14
0.9961,0.0039	-1204.04
0.9450,0.0550	-1204.47
0.9522,0.0478	-1204.41
0.9417,0.0583	-1204.50
0.9874,0.0126	-1204.11
0.8293,0.1707	-1207.22
0.9962,0.0038	-1204.04
0.9450,0.0550	-1207.32
0.9488,0.0512	-1204.44
0.9513,0.0487	-1204.42
0.9874,0.0126	-1204.11
0.8185,0.1815	-1208.78
0.9963,0.0037	-1204.04
0.9344,0.0656	-1204.57
0.9528,0.0472	-1204.40
0.9555,0.0445	-1204.38
0.9854,0.0146	-1204.13
0.8038,0.1962	-1205.94
0.9960,0.0040	-1204.04
0.9325,0.0675	-1204.58
0.9530,0.0470	-1204.40
0.9591,0.0409	-1204.35
0.9841,0.0159	-1204.14
0.7962,0.2038	-1208.76
0.9951,0.0049	-1204.05
0.9394,0.0606	-1204.52
0.9500,0.0500	-1204.43
0.9572,0.0428	-1204.36
0.9845,0.0155	-1204.13
0.8414,0.1586	-1205.50
0.9958,0.0042	-1204.04
0.9508,0.0492	-1204.42
0.9441,0.0559	-1204.48
0.9567,0.0433	-1204.37
0.9848,0.0152	-1204.13
0.7836,0.2164	-1206.19
0.9949,0.0051	-1204.05
0.9511,0.0489	-1204.42
0.9463,0.0537	-1204.46
0.9521,0.0479	-1204.41
0.9875,0.0125	-1204.11
0.7916,0.2084	-1207.43
0.9945,0.0055	-1204.05
0.9504,0.0496	-1204.42
0.9474,0.0526	-1204.45
0.9479,0.0521	-1204.45
0.9883,0.0117	-1204.10
0.7545,0.2455	-1206.58
0.9933,0.0067	-1204.06
0.9504,0.0496	-1204.42
0.9408,0.0592	-1204.51
0.9353,0.0647	-1204.56
0.9819,0.0181	-1204.16
0.7881,0.2119	-1207.45
0.9912,0.0088	-1204.08
0.9532,0.0468	-1204.40
0.9484,0.0516	-1204.44
0.9365,0.0635	-1204.55
0.9753,0.0247	-1204.21
0.8598,0.1402	-1207.12
0.9914,0.0086	-1204.08
0.9367,0.0633	-1204.55
0.9475,0.0525	-1204.45
0.9263,0.0737	-1207.17
0.9797,0.0203	-1204.17
0.8591,0.1409	-1205.31
0.9921,0.0079	-1204.07
0.9191,0.0809	-1204.71
0.9512,0.0488	-1204.42
0.9336,0.0664	-1204.57
0.9733,0.0267	-1204.23
0.8730,0.1270	-1205.16
0.9919,0.0081	-1204.07
0.9060,0.0940	-1204.83
0.9432,0.0568	-1204.49
0.9416,0.0584	-1207.28
0.9723,0.0277	-1204.24
0.8887,0.1113	-1205.00
0.9910,0.0090	-1204.08
0.8973,0.1027	-1204.92
0.9381,0.0619	-1204.53
0.9449,0.0551	-1204.47
0.9762,0.0238	-1204.20
0.8585,0.1415	-1205.32
0.9917,0.0083	-1204.08
0.9020,0.0980	-1204.87
0.9501,0.0499	-1204.43
0.9515,0.0485	-1204.41
0.9661,0.0339	-1204.29
0.8652,0.1348	-1205.25
0.9925,0.0075	-1204.07
0.8949,0.1051	-1207.08
0.9551,0.0449	-1204.38
0.9449,0.0551	-1204.47
0.9731,0.0269	-1204.23
0.8369,0.1631	-1205.55
0.9929,0.0071	-1204.07
0.8688,0.1312	-1205.21
0.9591,0.0409	-1207.50
0.9492,0.0508	-1204.43
0.9692,0.0308	-1204.26
0.8705,0.1295	-1205.19
0.9934,0.0066	-1204.06
0.9175,0.0825	-1204.72
0.9520,0.0480	-1204.41
0.9453,0.0547	-1204.47
0.9714,0.0286	-1204.24
0.8696,0.1304	-1205.20
0.9947,0.0053	-1204.05
0.9146,0.0854	-1204.75
0.9562,0.0438	-1204.37
0.9312,0.0688	-1204.60
0.9699,0.0301	-1204.26
0.8697,0.1303	-1205.20
0.9935,0.0065	-1204.06
0.9215,0.0785	-1204.69
0.9383,0.0617	-1204.53
0.9430,0.0570	-1204.49
0.9711,0.0289	-1204.25
0.8659,0.1341	-1205.24
0.9941,0.0059	-1204.06
0.9284,0.0716	-1207.18
0.9314,0.0686	-1204.59
0.9423,0.0577	-1204.50
0.9710,0.0290	-1204.25
0.8638,0.1362	-1205.26
0.9952,0.0048	-1204.05
0.9328,0.0672	-1204.58
0.9353,0.0647	-1204.56
0.9234,0.0766	-1204.67
0.9702,0.0298	-1207.74
0.8542,0.1458	-1205.36
0.9950,0.0050	-1204.05
0.9378,0.0622	-1204.54
0.9457,0.0543	-1204.47
0.9173,0.0827	-1204.73
0.9736,0.0264	-1204.22
0.8446,0.1554	-1207.16
0.9953,0.0047	-1204.05
0.9327,0.0673	-1207.21
0.9421,0.0579	-1204.50
0.9048,0.0952	-1204.84
0.9750,0.0250	-1204.21
0.7740,0.2260	-1206.32
0.9958,0.0042	-1204.04
0.9227,0.0773	-1204.67
0.9470,0.0530	-1204.45
0.8945,0.1055	-1204.95
0.9748,0.0252	-1204.21
0.7803,0.2197	-1208.77
0.9959,0.0041	-1204.04
0.9294,0.0706	-1204.61
0.9436,0.0564	-1204.48
0.9034,0.0966	-1204.86
0.9760,0.0240	-1204.20
0.7963,0.2037	-1208.76
0.9957,0.0043	-1204.04
0.9180,0.0820	-1204.72
0.9369,0.0631	-1204.54
0.9193,0.0807	-1204.71
0.9788,0.0212	-1204.18
0.8222,0.1778	-1208.78
0.9953,0.0047	-1204.05
0.9094,0.0906	-1204.80
0.9437,0.0563	-1204.48
0.9223,0.0777	-1204.68
0.9780,0.0220	-1207.98
0.8113,0.1887	-1205.85
0.9936,0.0064	-1204.06
0.9171,0.0829	-1204.73
0.9321,0.0679	-1204.59
0.9389,0.0611	-1204.53
0.9784,0.0216	-1204.18
0.8164,0.1836	-1205.79
0.9923,0.0077	-1204.07
0.8919,0.1081	-1204.97
0.9179,0.0821	-1204.72
0.9349,0.0651	-1204.56
0.9825,0.0175	-1204.15
0.8178,0.1822	-1205.77
0.9935,0.0065	-1204.06
0.8898,0.1102	-1204.99
0.9277,0.0723	-1204.63
0.9437,0.0563	-1204.48
0.9817,0.0183	-1208.14
0.8223,0.1777	-1205.72
0.9932,0.0068	-1204.06
0.8823,0.1177	-1207.08
0.9322,0.0678	-1204.59
0.9461,0.0539	-1204.46
0.9808,0.0192	-1204.16
0.7929,0.2071	-1207.42
0.9917,0.0083	-1204.08
0.8927,0.1073	-1204.96
0.9054,0.0946	-1204.84
0.9384,0.0616	-1204.53
0.9819,0.0181	-1204.16
0.8057,0.1943	-1207.34
0.9899,0.0101	-1204.09
0.8915,0.1085	-1204.97
0.9045,0.0955	-1204.85
0.9454,0.0546	-1204.47
0.9870,0.0130	-1204.11
0.8168,0.1832	-1205.78
0.9880,0.0120	-1204.11
0.8932,0.1068	-1204.96
0.8936,0.1064	-1204.95
0.9512,0.0488	-1204.42
0.9910,0.0090	-1204.08
0.8058,0.1942	-1205.92
0.9850,0.0150	-1204.13
0.8710,0.1290	-1207.09
0.8599,0.1401	-1207.12
0.9486,0.0514	-1204.44
0.9911,0.0089	-1204.08
0.8167,0.1833	-1205.79
0.9856,0.0144	-1204.12
0.8443,0.1557	-1205.47
0.8919,0.1081	-1207.08
0.9575,0.0425	-1204.36
0.9912,0.0088	-1204.08
0.8308,0.1692	-1207.21
0.9879,0.0121	-1204.11
0.8364,0.1636	-1207.19
0.8878,0.1122	-1205.01
0.9548,0.0452	-1204.38
0.9920,0.0080	-1204.07
0.8277,0.1723	-1205.66
0.9859,0.0141	-1204.12
0.8543,0.1457	-1205.36
0.8874,0.1126	-1205.02
0.9638,0.0362	-1204.31
0.9905,0.0095	-1204.08
0.7839,0.2161	-1207.48
0.9877,0.0123	-1204.11
0.8773,0.1227	-1205.12
0.8766,0.1234	-1205.13
0.9724,0.0276	-1204.23
0.9877,0.0123	-1204.11
0.8151,0.1849	-1208.77
0.9902,0.0098	-1204.09
0.9074,0.0926	-1207.10
0.8785,0.1215	-1207.08
0.9708,0.0292	-1204.25
0.9856,0.0144	-1204.12
0.8372,0.1628	-1205.55
0.9898,0.0102	-1204.09
0.9258,0.0742	-1204.65
0.8806,0.1194	-1205.08
0.9637,0.0363	-1204.31
0.9867,0.0133	-1204.12
0.8217,0.1783	-1207.26
0.9916,0.0084	-1204.08
0.9259,0.0741	-1204.65
0.8996,0.1004	-1204.90
0.9582,0.0418	-1204.36
0.9878,0.0122	-1204.11
0.8079,0.1921	-1205.89
0.9928,0.0072	-1204.07
0.9493,0.0507	-1204.43
0.8781,0.1219	-1207.09
0.9536,0.0464	-1204.40
0.9866,0.0134	-1204.12
0.7942,0.2058	-1206.06
0.9914,0.0086	-1204.08
0.9441,0.0559	-1204.48
0.8681,0.1319	-1205.21
0.9545,0.0455	-1204.39
0.9869,0.0131	-1204.11
0.8185,0.1815	-1207.27
0.9883,0.0117	-1208.54
0.9303,0.0697	-1204.60
0.8775,0.1225	-1205.12
0.9420,0.0580	-1204.50
0.9868,0.0132	-1204.11
0.8059,0.1941	-1210.19
0.9868,0.0132	-1204.11
0.9360,0.0640	-1204.55
0.8598,0.1402	-1205.30
0.9250,0.0750	-1204.65
0.9879,0.0121	-1204.11
0.8153,0.1847	-1208.77
0.9862,0.0138	-1204.12
0.9314,0.0686	-1204.59
0.8748,0.1252	-1205.14
0.9306,0.0694	-1204.60
0.9864,0.0136	-1204.12
0.8055,0.1945	-1205.92
0.9842,0.0158	-1204.14
0.9291,0.0709	-1204.61
0.9048,0.0952	-1204.84
0.9343,0.0657	-1204.57
0.9868,0.0132	-1204.11
0.8265,0.1735	-1207.23
0.9816,0.0184	-1204.16
0.9215,0.0785	-1204.69
0.8944,0.1056	-1204.95
0.9390,0.0610	-1204.52
0.9874,0.0126	-1204.11
0.8074,0.1926	-1207.33
0.9813,0.0187	-1204.16
0.9244,0.0756	-1204.66
0.8783,0.1217	-1205.11
0.9226,0.0774	-1207.15
0.9865,0.0135	-1204.12
0.8183,0.1817	-1207.27
0.9820,0.0180	-1204.15
0.9190,0.0810	-1207.14
0.8638,0.1362	-1205.26
0.9027,0.0973	-1204.87
0.9864,0.0136	-1204.12
0.8445,0.1555	-1207.16
0.9835,0.0165	-1204.14
0.9257,0.0743	-1204.65
0.8725,0.1275	-1205.17
0.8989,0.1011	-1204.90
0.9820,0.0180	-1204.15
0.8433,0.1567	-1205.48
0.9831,0.0169	-1204.15
0.9208,0.0792	-1204.69
0.8734,0.1266	-1205.16
0.9121,0.0879	-1204.77
0.9801,0.0199	-1204.17
0.8645,0.1355	-1205.25
0.9772,0.0228	-1204.19
0.9122,0.0878	-1204.77
0.8715,0.1285	-1207.09
0.8692,0.1308	-1205.20
0.9820,0.0180	-1204.15
0.8836,0.1164	-1207.08
0.9753,0.0247	-1204.21
0.8968,0.1032	-1204.92
0.8924,0.1076	-1204.97
0.8628,0.1372	-1205.27
0.9790,0.0210	-1204.18
0.8617,0.1383	-1205.28
0.9758,0.0242	-1204.21
0.9224,0.0776	-1204.68
0.8961,0.1039	-1204.93
0.8787,0.1213	-1205.10
0.9726,0.0274	-1204.23
0.8445,0.1555	-1207.16
0.9805,0.0195	-1204.17
0.9292,0.0708	-1204.61
0.8871,0.1129	-1205.02
0.8795,0.1205	-1205.10
0.9708,0.0292	-1204.25
0.7939,0.2061	-1206.06
0.9738,0.0262	-1204.22
0.9082,0.0918	-1204.81
0.8745,0.1255	-1205.15
0.8678,0.1322	-1205.22
0.9751,0.0249	-1204.21
0.7578,0.2422	-1206.53
0.9810,0.0190	-1204.16
0.9233,0.0767	-1207.16
0.8715,0.1285	-1205.18
0.8676,0.1324	-1207.10
0.9769,0.0231	-1204.20
0.7759,0.2241	-1207.53
0.9791,0.0209	-1204.18
0.9135,0.0865	-1204.76
0.8751,0.1249	-1207.09
