#isoforms=['ENSG00000101294.SE.1.A.up_ENSG00000101294.SE.1.A.SE1_ENSG00000101294.SE.1.A.dn','ENSG00000101294.SE.1.B.up_ENSG00000101294.SE.1.B.dn']	exon_lens=('ENSG00000101294.SE.1.A.up',99),('ENSG00000101294.SE.1.A.SE1',376),('ENSG00000101294.SE.1.A.dn',89),('ENSG00000101294.SE.1.B.up',99),('ENSG00000101294.SE.1.B.dn',89)	iters=5000	burn_in=500	lag=10	percent_accept=79.87	proposal_type=drift	counts=(0,0):642,(1,0):231,(1,1):443	assigned_counts=0:315,1:359	chrom=chr20	strand=+	mRNA_starts=31527484,31527484	mRNA_ends=31545035,31545035
sampled_psi	log_score
0.1781,0.8219	-4213.86
0.2188,0.7812	-4254.47
0.2076,0.7924	-4220.89
0.2382,0.7618	-4276.02
0.2230,0.7770	-4243.45
0.2057,0.7943	-4242.28
0.2174,0.7826	-4235.20
0.2251,0.7749	-4256.07
0.1923,0.8077	-4232.60
0.2437,0.7563	-4272.96
0.1991,0.8009	-4240.92
0.2259,0.7741	-4253.67
0.2340,0.7660	-4271.13
0.2357,0.7643	-4262.98
0.2015,0.7985	-4242.27
0.2232,0.7768	-4227.26
0.1939,0.8061	-4252.51
0.2057,0.7943	-4224.72
0.2379,0.7621	-4258.55
0.2590,0.7410	-4276.97
0.2098,0.7902	-4238.43
0.1991,0.8009	-4252.06
0.2031,0.7969	-4243.63
0.1905,0.8095	-4221.09
0.2120,0.7880	-4247.77
0.2569,0.7431	-4292.60
0.2023,0.7977	-4229.92
0.2092,0.7908	-4247.70
0.1995,0.8005	-4225.63
0.2018,0.7982	-4261.51
0.1915,0.8085	-4234.06
0.2368,0.7632	-4277.14
0.1804,0.8196	-4247.07
0.1990,0.8010	-4231.17
0.1937,0.8063	-4249.68
0.1999,0.8001	-4229.81
0.1830,0.8170	-4225.69
0.2468,0.7532	-4264.34
0.2208,0.7792	-4253.30
0.1718,0.8282	-4219.04
0.2090,0.7910	-4249.03
0.2002,0.7998	-4222.90
0.1693,0.8307	-4230.51
0.2170,0.7830	-4255.69
0.2374,0.7626	-4267.82
0.1974,0.8026	-4239.56
0.2053,0.7947	-4251.75
0.2082,0.7918	-4258.38
0.1840,0.8160	-4239.04
0.2249,0.7751	-4259.77
0.2165,0.7835	-4276.26
0.2110,0.7890	-4255.65
0.2000,0.8000	-4224.27
0.2277,0.7723	-4277.04
0.2072,0.7928	-4236.95
0.2369,0.7631	-4265.44
0.2036,0.7964	-4253.17
0.2143,0.7857	-4242.66
0.1934,0.8066	-4243.99
0.2270,0.7730	-4263.57
0.2266,0.7734	-4261.10
0.2204,0.7796	-4246.97
0.2367,0.7633	-4267.76
0.2247,0.7753	-4257.29
0.2078,0.7922	-4228.95
0.2123,0.7877	-4260.88
0.1886,0.8114	-4219.62
0.2207,0.7793	-4241.94
0.2610,0.7390	-4287.67
0.2343,0.7657	-4278.25
0.2207,0.7793	-4265.91
0.2186,0.7814	-4279.94
0.2127,0.7873	-4249.10
0.2084,0.7916	-4246.36
0.2350,0.7650	-4260.55
0.2442,0.7558	-4275.26
0.2179,0.7821	-4260.83
0.2236,0.7764	-4253.49
0.2170,0.7830	-4253.13
0.2167,0.7833	-4244.12
0.2250,0.7750	-4270.91
0.2328,0.7672	-4273.46
0.2181,0.7819	-4267.21
0.2241,0.7759	-4253.53
0.2005,0.7995	-4264.41
0.2306,0.7694	-4258.95
0.1874,0.8126	-4231.35
0.2330,0.7670	-4280.61
0.2127,0.7873	-4246.48
0.2092,0.7908	-4251.69
0.2162,0.7838	-4250.52
0.2419,0.7581	-4273.94
0.1875,0.8125	-4253.34
0.2151,0.7849	-4256.95
0.2183,0.7817	-4251.90
0.2220,0.7780	-4255.89
0.1932,0.8068	-4229.72
0.2257,0.7743	-4253.65
0.1940,0.8060	-4245.38
0.2394,0.7606	-4255.28
0.2343,0.7657	-4259.30
0.2143,0.7857	-4280.33
0.2036,0.7964	-4259.99
0.2113,0.7887	-4254.33
0.1977,0.8023	-4253.56
0.2393,0.7607	-4242.54
0.2186,0.7814	-4269.75
0.2131,0.7869	-4258.25
0.1809,0.8191	-4237.92
0.2077,0.7923	-4250.36
0.2226,0.7774	-4264.67
0.2186,0.7814	-4250.64
0.1951,0.8049	-4228.30
0.1992,0.8008	-4232.57
0.2146,0.7854	-4258.24
0.2027,0.7973	-4231.31
0.2258,0.7742	-4251.19
0.1929,0.8071	-4252.62
0.2139,0.7861	-4238.72
0.2028,0.7972	-4214.89
0.2237,0.7763	-4251.01
0.2116,0.7884	-4245.12
0.2180,0.7820	-4246.77
0.1989,0.8011	-4256.25
0.2023,0.7977	-4251.87
0.2182,0.7818	-4257.00
0.1844,0.8156	-4238.99
0.1967,0.8033	-4238.17
0.2153,0.7847	-4260.83
0.2132,0.7868	-4247.81
0.1834,0.8166	-4230.15
0.2277,0.7723	-4279.48
0.1884,0.8116	-4240.06
0.2040,0.7960	-4255.88
0.2096,0.7904	-4257.00
0.2160,0.7840	-4256.96
0.1768,0.8232	-4224.70
0.2084,0.7916	-4283.73
0.1862,0.8138	-4227.00
0.2131,0.7869	-4249.11
0.1918,0.8082	-4222.54
0.2016,0.7984	-4247.77
0.1745,0.8255	-4238.95
0.2002,0.7998	-4236.75
0.2131,0.7869	-4258.25
0.1736,0.8264	-4223.53
0.1948,0.8052	-4233.97
0.2040,0.7960	-4250.43
0.1894,0.8106	-4238.53
0.1989,0.8011	-4240.92
0.1929,0.8071	-4241.17
0.2077,0.7923	-4258.40
0.2136,0.7864	-4253.03
0.2371,0.7629	-4260.78
0.2160,0.7840	-4245.36
0.1949,0.8051	-4256.66
0.2132,0.7868	-4260.86
0.2072,0.7928	-4253.05
0.2166,0.7834	-4251.83
0.2065,0.7935	-4243.65
0.2057,0.7943	-4247.69
0.1896,0.8104	-4244.32
0.2353,0.7647	-4279.44
0.1799,0.8201	-4219.86
0.2136,0.7864	-4249.12
0.2484,0.7516	-4278.96
0.1946,0.8054	-4222.61
0.2414,0.7586	-4289.94
0.2382,0.7618	-4264.40
0.1817,0.8183	-4257.39
0.2404,0.7596	-4277.29
0.2287,0.7713	-4261.22
0.2002,0.7998	-4229.82
0.2296,0.7704	-4252.81
0.2351,0.7649	-4268.83
0.1790,0.8210	-4218.39
0.2354,0.7646	-4284.16
0.2284,0.7716	-4242.94
0.2090,0.7910	-4235.72
0.2281,0.7719	-4255.09
0.2119,0.7881	-4243.82
0.1965,0.8035	-4252.26
0.2095,0.7905	-4234.43
0.2187,0.7813	-4248.10
0.2277,0.7723	-4264.82
0.2272,0.7728	-4247.66
0.2044,0.7956	-4277.61
0.2001,0.7999	-4253.38
0.1960,0.8040	-4242.42
0.1917,0.8083	-4231.18
0.2374,0.7626	-4247.98
0.2224,0.7776	-4257.16
0.2053,0.7947	-4251.75
0.2145,0.7855	-4258.24
0.1794,0.8206	-4239.65
0.1725,0.8275	-4206.42
0.2341,0.7659	-4259.28
0.2298,0.7702	-4261.29
0.2137,0.7863	-4245.22
0.2145,0.7855	-4260.84
0.2102,0.7898	-4245.07
0.1713,0.8287	-4226.98
0.1982,0.8018	-4242.34
0.2249,0.7751	-4256.06
0.2608,0.7392	-4265.78
0.1882,0.8118	-4229.85
0.2285,0.7715	-4258.77
0.1839,0.8161	-4228.62
0.1833,0.8167	-4246.59
0.2230,0.7770	-4265.93
0.2336,0.7664	-4269.92
0.1841,0.8159	-4230.10
0.2067,0.7933	-4263.83
0.2132,0.7868	-4250.42
0.1964,0.8036	-4245.22
0.2076,0.7924	-4251.70
0.2023,0.7977	-4227.17
0.1946,0.8054	-4259.54
0.1646,0.8354	-4251.00
0.2143,0.7857	-4254.35
0.2068,0.7932	-4258.44
0.2074,0.7926	-4245.00
0.2009,0.7991	-4231.23
0.1749,0.8251	-4248.18
0.1818,0.8182	-4212.24
0.2016,0.7984	-4261.54
0.2216,0.7784	-4254.61
0.2094,0.7906	-4233.09
0.2046,0.7954	-4255.85
0.1803,0.8197	-4245.58
0.1979,0.8021	-4238.15
0.1989,0.8011	-4239.53
0.2260,0.7740	-4265.99
0.2094,0.7906	-4245.05
0.2026,0.7974	-4247.74
0.2096,0.7904	-4254.34
0.1971,0.8029	-4224.12
0.2152,0.7848	-4264.71
0.2237,0.7763	-4278.38
0.2084,0.7916	-4235.68
0.2331,0.7669	-4267.51
0.2079,0.7921	-4254.37
0.1990,0.8010	-4245.10
0.2070,0.7930	-4266.48
0.2156,0.7844	-4236.30
0.2263,0.7737	-4247.56
0.2218,0.7782	-4269.68
0.1848,0.8152	-4225.59
0.1959,0.8041	-4233.96
0.1906,0.8094	-4242.78
0.2325,0.7675	-4261.50
0.2304,0.7696	-4262.55
0.2025,0.7975	-4258.71
0.1929,0.8071	-4232.58
0.2023,0.7977	-4255.98
0.2013,0.7987	-4235.38
0.2155,0.7845	-4254.37
0.2181,0.7819	-4263.38
0.2295,0.7705	-4250.37
0.1879,0.8121	-4243.04
0.1967,0.8033	-4218.47
0.2020,0.7980	-4234.02
0.2053,0.7947	-4258.52
0.2254,0.7746	-4273.38
0.2365,0.7635	-4254.86
0.1839,0.8161	-4222.66
0.1999,0.8001	-4218.71
0.1948,0.8052	-4249.58
0.1950,0.8050	-4245.31
0.2336,0.7664	-4280.61
0.2003,0.7997	-4218.75
0.2010,0.7990	-4254.69
0.1992,0.8008	-4242.31
0.2267,0.7733	-4259.87
0.1792,0.8208	-4230.56
0.2243,0.7757	-4265.95
0.1826,0.8174	-4215.23
0.1981,0.8019	-4259.12
0.1990,0.8010	-4240.92
0.2236,0.7764	-4243.53
0.2047,0.7953	-4247.70
0.2197,0.7803	-4274.79
0.1773,0.8227	-4230.79
0.2072,0.7928	-4250.37
0.2137,0.7863	-4250.43
0.2191,0.7809	-4239.23
0.2088,0.7912	-4246.36
0.1981,0.8019	-4254.93
0.2108,0.7892	-4268.85
0.1939,0.8061	-4253.93
0.2063,0.7937	-4243.64
0.1989,0.8011	-4260.42
0.1862,0.8138	-4243.23
0.2073,0.7927	-4254.39
0.2130,0.7870	-4245.19
0.2088,0.7912	-4251.69
0.1985,0.8015	-4245.12
0.2115,0.7885	-4264.86
0.2149,0.7851	-4260.83
0.2227,0.7773	-4253.42
0.2023,0.7977	-4250.49
0.2422,0.7578	-4272.83
0.2006,0.7994	-4254.72
0.2120,0.7880	-4260.89
0.1859,0.8141	-4235.88
0.1978,0.8022	-4242.35
0.2284,0.7716	-4269.72
0.2321,0.7679	-4274.64
0.1951,0.8049	-4258.06
0.2028,0.7972	-4269.64
0.1967,0.8033	-4236.76
0.1754,0.8246	-4232.59
0.2179,0.7821	-4268.50
0.2076,0.7924	-4265.10
0.2011,0.7989	-4257.45
0.1861,0.8139	-4231.43
0.2313,0.7687	-4284.23
0.1980,0.8020	-4235.35
0.2302,0.7698	-4275.81
0.2075,0.7925	-4259.75
0.2025,0.7975	-4235.41
0.1909,0.8091	-4219.65
0.2043,0.7957	-4244.99
0.2223,0.7777	-4259.66
0.2144,0.7856	-4242.66
0.2191,0.7809	-4250.67
0.1971,0.8029	-4236.76
0.2132,0.7868	-4243.89
0.1840,0.8160	-4221.17
0.2223,0.7777	-4270.93
0.2285,0.7715	-4253.91
0.2044,0.7956	-4280.32
0.2327,0.7673	-4262.72
0.2307,0.7693	-4272.20
0.1961,0.8039	-4238.19
0.1975,0.8025	-4250.78
0.2217,0.7783	-4260.89
0.1968,0.8032	-4252.23
0.2168,0.7832	-4269.81
0.2155,0.7845	-4245.32
0.1926,0.8074	-4241.19
0.2342,0.7658	-4259.30
0.2269,0.7731	-4253.76
0.1803,0.8197	-4241.04
0.1916,0.8084	-4236.94
0.2081,0.7919	-4257.04
0.2111,0.7889	-4259.60
0.2222,0.7778	-4290.98
0.2087,0.7913	-4238.36
0.1825,0.8175	-4245.22
0.1859,0.8141	-4243.26
0.2033,0.7967	-4236.80
0.1865,0.8135	-4246.14
0.2122,0.7878	-4255.64
0.1866,0.8134	-4225.51
0.1950,0.8050	-4238.22
0.1997,0.8003	-4258.95
0.2023,0.7977	-4235.40
0.2078,0.7922	-4223.60
0.2102,0.7898	-4259.63
0.1976,0.8024	-4257.78
0.2048,0.7952	-4244.98
0.2431,0.7569	-4269.50
0.2138,0.7862	-4253.04
0.1979,0.8021	-4247.94
0.2159,0.7841	-4258.25
0.2001,0.7999	-4232.59
0.2132,0.7868	-4238.67
0.2229,0.7771	-4264.68
0.2277,0.7723	-4267.27
0.2205,0.7795	-4241.93
0.2296,0.7704	-4251.60
0.2198,0.7802	-4246.91
0.1908,0.8092	-4247.10
0.2544,0.7456	-4283.86
0.1934,0.8066	-4229.72
0.2279,0.7721	-4234.32
0.2018,0.7982	-4245.02
0.1886,0.8114	-4238.58
0.2179,0.7821	-4257.00
0.2576,0.7424	-4285.23
0.1797,0.8203	-4215.31
0.2107,0.7893	-4259.62
0.2024,0.7976	-4251.86
0.1936,0.8064	-4228.29
0.1860,0.8140	-4255.06
0.2136,0.7864	-4255.64
0.1978,0.8022	-4226.95
0.2186,0.7814	-4254.46
0.1874,0.8126	-4234.29
0.1860,0.8140	-4241.78
0.2330,0.7670	-4280.61
0.2100,0.7900	-4255.66
0.2381,0.7619	-4274.86
0.2067,0.7933	-4238.27
0.2072,0.7928	-4266.47
0.1776,0.8224	-4241.47
0.2183,0.7817	-4248.07
0.2245,0.7755	-4248.60
0.2061,0.7939	-4254.43
0.2264,0.7736	-4264.77
0.1865,0.8135	-4225.52
0.1968,0.8032	-4228.32
0.2162,0.7838	-4259.54
0.1950,0.8050	-4235.38
0.2122,0.7878	-4263.51
0.1978,0.8022	-4238.15
0.2187,0.7813	-4231.55
0.2088,0.7912	-4246.36
0.2301,0.7699	-4244.40
0.2154,0.7846	-4249.19
0.2086,0.7914	-4251.69
0.2183,0.7817	-4269.76
0.2311,0.7689	-4254.18
0.1941,0.8059	-4242.52
0.2289,0.7711	-4274.59
0.1891,0.8109	-4244.38
0.2140,0.7860	-4247.84
0.2276,0.7724	-4248.93
0.2479,0.7521	-4286.70
0.2269,0.7731	-4259.88
0.2143,0.7857	-4246.55
0.2205,0.7795	-4230.55
0.1914,0.8086	-4213.89
0.1929,0.8071	-4254.06
0.2076,0.7924	-4249.02
0.1971,0.8029	-4231.14
0.2139,0.7861	-4241.33
0.1872,0.8128	-4248.98
0.2071,0.7929	-4245.00
0.2275,0.7725	-4285.60
0.2177,0.7823	-4240.36
0.2021,0.7979	-4245.01
0.2205,0.7795	-4264.65
0.1980,0.8020	-4253.53
0.1980,0.8020	-4231.15
0.2164,0.7836	-4255.68
0.1927,0.8073	-4216.83
0.2456,0.7544	-4263.03
0.1998,0.8002	-4243.68
0.2126,0.7874	-4258.26
0.2024,0.7976	-4253.23
0.2172,0.7828	-4246.72
0.2004,0.7996	-4269.96
0.2348,0.7652	-4277.08
0.2081,0.7919	-4258.38
0.2217,0.7783	-4249.59
0.2078,0.7922	-4253.04
0.2482,0.7518	-4270.09
0.2016,0.7984	-4240.89
0.2151,0.7849	-4254.36
0.1940,0.8060	-4226.86
0.2046,0.7954	-4255.85
0.2042,0.7958	-4254.51
0.2161,0.7839	-4263.40
0.1849,0.8151	-4225.58
0.1946,0.8054	-4245.33
0.1972,0.8028	-4232.55
0.2006,0.7994	-4224.31
0.2295,0.7705	-4255.22
0.2231,0.7769	-4253.45
0.2269,0.7731	-4261.11
0.1980,0.8020	-4222.76
0.2093,0.7907	-4250.36
0.2318,0.7682	-4241.08
0.2133,0.7867	-4249.11
0.2339,0.7661	-4258.07
0.2199,0.7801	-4264.65
0.2022,0.7978	-4229.91
0.1964,0.8036	-4226.91
0.2037,0.7963	-4254.53
0.2096,0.7904	-4237.08
0.2427,0.7573	-4267.18
0.2041,0.7959	-4247.71
0.1978,0.8022	-4224.15
0.2205,0.7795	-4269.70
0.2066,0.7934	-4249.03
0.2229,0.7771	-4283.41
0.2191,0.7809	-4246.86
0.2114,0.7886	-4253.01
0.2077,0.7923	-4275.81
0.2203,0.7797	-4240.63
0.2503,0.7497	-4282.42
0.2268,0.7732	-4259.88
0.2132,0.7868	-4233.44
0.1990,0.8010	-4239.53
0.1994,0.8006	-4236.74
0.2422,0.7578	-4267.12
0.2221,0.7779	-4257.14
0.2313,0.7687	-4271.02
0.1959,0.8041	-4248.08
0.2093,0.7907	-4254.35
0.2081,0.7919	-4239.67
0.2268,0.7732	-4251.30
0.2188,0.7812	-4248.11
0.2348,0.7652	-4278.26
0.1929,0.8071	-4226.86
0.2201,0.7799	-4264.65
0.2104,0.7896	-4247.72
0.2159,0.7841	-4255.67
0.2019,0.7981	-4264.26
0.2104,0.7896	-4255.66
0.1854,0.8146	-4244.80
0.2096,0.7904	-4241.07
0.1811,0.8189	-4234.88
0.1843,0.8157	-4219.67
0.1950,0.8050	-4241.06
0.2036,0.7964	-4247.72
0.1679,0.8321	-4225.98
0.2103,0.7897	-4250.37
0.1903,0.8097	-4213.84
0.1989,0.8011	-4228.38
0.1766,0.8234	-4230.88
0.1997,0.8003	-4233.97
0.2039,0.7961	-4227.28
0.2302,0.7698	-4279.43
0.2250,0.7750	-4251.12
0.2034,0.7966	-4262.74
0.1990,0.8010	-4259.02
0.2016,0.7984	-4250.53
0.2234,0.7766	-4255.97
0.2218,0.7782	-4249.60
0.2201,0.7799	-4253.26
0.2197,0.7803	-4253.24
0.2104,0.7896	-4255.66
0.2082,0.7918	-4226.32
0.2452,0.7548	-4262.98
0.2168,0.7832	-4235.14
0.1974,0.8026	-4250.78
0.2180,0.7820	-4264.66
0.2005,0.7995	-4225.68
0.2318,0.7682	-4259.05
0.2046,0.7954	-4251.78
0.1955,0.8045	-4246.69
0.2210,0.7790	-4264.65
0.2116,0.7884	-4245.12
0.2041,0.7959	-4244.99
0.2017,0.7983	-4261.52
0.2137,0.7863	-4242.62
0.2146,0.7854	-4254.35
0.2193,0.7807	-4251.95
0.2098,0.7902	-4234.45
0.2048,0.7952	-4255.84
0.2014,0.7986	-4234.01
0.1923,0.8077	-4229.73
0.1840,0.8160	-4225.63
0.2322,0.7678	-4275.83
0.2358,0.7642	-4281.81
0.2277,0.7723	-4251.39
0.2085,0.7915	-4255.70
0.1844,0.8156	-4230.07
0.2352,0.7648	-4261.76
0.2017,0.7983	-4258.78
0.2247,0.7753	-4248.62
0.2352,0.7648	-4279.44
0.1975,0.8025	-4264.80
0.1866,0.8134	-4221.10
0.2213,0.7787	-4268.43
0.1895,0.8105	-4219.62
0.2256,0.7744	-4254.88
0.2414,0.7586	-4275.05
0.2378,0.7622	-4276.01
0.1962,0.8038	-4253.70
0.2029,0.7971	-4246.37
0.1921,0.8079	-4236.91
0.2022,0.7978	-4257.36
0.2367,0.7633	-4263.08
0.2080,0.7920	-4255.71
0.2204,0.7796	-4253.28
0.2417,0.7583	-4259.07
0.1757,0.8243	-4234.10
0.2084,0.7916	-4239.68
0.2388,0.7612	-4252.87
0.1999,0.8001	-4221.49
0.2064,0.7936	-4247.68
0.2293,0.7707	-4270.96
0.2024,0.7976	-4235.41
0.2090,0.7910	-4242.37
0.2043,0.7957	-4262.66
0.2164,0.7836	-4253.11
0.2197,0.7803	-4255.78
0.2024,0.7976	-4236.78
0.2066,0.7934	-4269.21
0.2122,0.7878	-4250.39
0.2024,0.7976	-4261.47
0.1994,0.8006	-4227.01
0.2120,0.7880	-4234.64
0.1959,0.8041	-4246.67
0.2331,0.7669	-4263.94
0.2277,0.7723	-4264.82
0.2003,0.7997	-4245.06
0.1916,0.8084	-4242.70
0.2113,0.7887	-4253.01
0.2007,0.7993	-4256.10
0.2367,0.7633	-4265.42
0.2008,0.7992	-4242.28
0.2044,0.7956	-4230.04
0.1817,0.8183	-4237.83
0.1993,0.8007	-4238.13
0.2171,0.7829	-4254.41
0.2102,0.7898	-4267.58
0.1926,0.8074	-4226.86
0.2127,0.7873	-4250.40
0.2311,0.7689	-4260.20
0.2002,0.7998	-4260.29
0.1991,0.8009	-4236.74
0.2164,0.7836	-4263.40
0.1895,0.8105	-4244.33
0.2206,0.7794	-4263.39
0.2220,0.7780	-4249.61
0.1873,0.8127	-4231.36
0.2032,0.7968	-4236.80
0.2129,0.7871	-4264.79
0.1815,0.8185	-4237.84
0.2339,0.7661	-4262.82
0.1967,0.8033	-4238.17
0.2180,0.7820	-4277.43
0.2000,0.8000	-4246.45
0.1815,0.8185	-4243.87
0.1926,0.8074	-4262.68
0.1977,0.8023	-4250.76
0.1888,0.8112	-4254.60
0.2091,0.7909	-4272.98
0.2086,0.7914	-4253.03
0.2139,0.7861	-4259.55
0.2053,0.7947	-4244.98
0.2037,0.7963	-4238.17
0.1805,0.8195	-4227.39
0.2076,0.7924	-4259.74
0.2135,0.7865	-4267.38
0.2285,0.7715	-4255.13
0.2002,0.7998	-4222.89
0.1892,0.8108	-4222.53
0.1850,0.8150	-4243.38
0.2412,0.7588	-4264.73
0.2077,0.7923	-4235.64
0.2198,0.7802	-4259.58
0.2161,0.7839	-4242.78
0.2065,0.7935	-4247.68
0.1948,0.8052	-4249.58
0.2060,0.7940	-4258.48
0.2121,0.7879	-4246.45
0.2195,0.7805	-4248.16
0.2103,0.7897	-4256.98
0.2208,0.7792	-4250.78
0.2137,0.7863	-4246.52
0.1982,0.8018	-4225.57
0.2214,0.7786	-4252.08
0.2084,0.7916	-4246.36
0.2542,0.7458	-4278.46
0.2242,0.7758	-4252.29
0.2176,0.7824	-4254.43
0.2171,0.7829	-4256.98
0.2288,0.7712	-4264.88
0.2408,0.7592	-4288.79
0.2162,0.7838	-4253.10
0.2005,0.7995	-4232.60
0.2170,0.7830	-4259.54
0.2108,0.7892	-4249.05
0.2065,0.7935	-4239.61
0.2284,0.7716	-4251.46
0.2005,0.7995	-4257.50
0.2156,0.7844	-4253.08
0.2373,0.7627	-4275.99
0.2007,0.7993	-4251.95
0.1666,0.8334	-4213.35
0.2159,0.7841	-4256.96
0.2168,0.7832	-4255.69
0.2261,0.7739	-4242.61
0.2113,0.7887	-4255.65
0.2014,0.7986	-4243.65
0.1734,0.8266	-4234.47
0.2186,0.7814	-4251.92
0.2086,0.7914	-4234.36
0.2330,0.7670	-4263.93
0.2269,0.7731	-4262.34
0.1980,0.8020	-4222.76
0.1967,0.8033	-4248.02
0.2233,0.7767	-4257.20
0.2091,0.7909	-4278.29
0.2421,0.7579	-4257.98
0.1900,0.8100	-4239.93
0.2015,0.7985	-4256.04
0.1957,0.8043	-4249.51
0.2193,0.7807	-4263.38
0.2070,0.7930	-4259.77
0.2310,0.7690	-4262.59
0.1926,0.8074	-4241.19
0.2143,0.7857	-4269.94
0.2098,0.7902	-4233.12
0.2118,0.7882	-4256.96
0.2444,0.7556	-4270.76
0.1811,0.8189	-4240.91
0.1935,0.8065	-4242.56
0.2097,0.7903	-4267.61
0.1879,0.8121	-4256.21
0.2097,0.7903	-4242.40
0.2277,0.7723	-4290.47
0.2056,0.7944	-4257.15
0.2128,0.7872	-4250.41
0.2023,0.7977	-4243.64
0.2136,0.7864	-4259.55
0.2242,0.7758	-4242.36
0.2140,0.7860	-4259.55
0.1984,0.8016	-4260.49
0.2240,0.7760	-4259.73
0.1847,0.8153	-4222.62
0.2102,0.7898	-4262.28
0.2068,0.7932	-4258.44
0.2213,0.7787	-4270.95
0.2037,0.7963	-4236.81
0.2080,0.7920	-4254.37
0.2044,0.7956	-4257.22
0.1883,0.8117	-4228.38
0.2110,0.7890	-4251.69
0.2359,0.7641	-4255.95
0.2010,0.7990	-4247.80
0.2029,0.7971	-4247.73
0.2107,0.7893	-4259.61
0.2051,0.7949	-4236.85
0.2276,0.7724	-4274.59
0.2356,0.7644	-4277.09
0.1726,0.8274	-4220.52
0.2105,0.7895	-4247.72
0.2051,0.7949	-4223.31
0.2160,0.7840	-4256.96
0.1999,0.8001	-4265.87
0.2316,0.7684	-4271.03
0.1800,0.8200	-4219.85
0.2396,0.7604	-4284.18
0.2127,0.7873	-4256.95
0.2182,0.7818	-4249.35
0.2255,0.7745	-4252.40
0.2302,0.7698	-4267.36
0.1992,0.8008	-4243.70
0.2188,0.7812	-4259.56
0.1824,0.8176	-4243.73
0.2047,0.7953	-4246.34
0.2028,0.7972	-4232.68
0.2276,0.7724	-4257.49
0.1973,0.8027	-4250.79
0.2203,0.7797	-4260.86
0.2222,0.7778	-4252.14
0.2081,0.7919	-4247.69
0.2168,0.7832	-4268.53
0.2033,0.7967	-4258.65
0.2084,0.7916	-4257.03
0.2323,0.7677	-4274.64
0.2211,0.7789	-4240.73
0.2174,0.7826	-4259.54
0.2307,0.7693	-4269.79
0.2462,0.7538	-4273.20
0.2122,0.7878	-4254.33
0.2345,0.7655	-4279.43
0.2264,0.7736	-4264.77
0.2212,0.7788	-4267.17
0.2027,0.7973	-4258.70
0.1919,0.8081	-4235.49
0.2152,0.7848	-4245.31
0.2558,0.7442	-4267.97
0.2253,0.7747	-4251.15
0.2182,0.7818	-4253.17
0.2057,0.7943	-4240.93
0.2179,0.7821	-4283.83
0.2033,0.7967	-4255.92
0.2156,0.7844	-4259.54
0.2115,0.7885	-4251.70
0.2023,0.7977	-4249.12
0.2169,0.7831	-4242.85
0.1952,0.8048	-4235.38
0.2381,0.7619	-4270.21
0.2215,0.7785	-4252.09
0.2147,0.7853	-4266.03
0.2075,0.7925	-4249.03
0.2179,0.7821	-4263.38
0.1995,0.8005	-4235.35
0.2306,0.7694	-4261.35
0.2351,0.7649	-4266.46
0.1998,0.8002	-4257.56
0.2224,0.7776	-4267.17
0.2065,0.7935	-4259.80
0.2112,0.7888	-4239.83
0.1955,0.8045	-4235.37
0.1948,0.8052	-4268.04
0.2099,0.7901	-4238.43
0.2212,0.7788	-4252.07
0.1873,0.8127	-4235.76
0.2241,0.7759	-4244.84
0.2080,0.7920	-4269.08
0.2157,0.7843	-4247.92
0.1966,0.8034	-4236.76
0.2511,0.7489	-4277.03
0.2030,0.7970	-4238.16
0.2229,0.7771	-4254.69
0.2031,0.7969	-4251.83
0.2063,0.7937	-4243.64
0.2060,0.7940	-4255.78
0.2538,0.7462	-4269.79
0.1997,0.8003	-4245.07
0.2241,0.7759	-4260.98
0.1856,0.8144	-4256.61
0.1860,0.8140	-4221.11
0.2333,0.7667	-4278.23
0.2238,0.7762	-4274.64
0.2050,0.7950	-4247.69
0.1878,0.8122	-4229.87
0.1984,0.8016	-4243.73
0.1951,0.8049	-4236.80
0.2352,0.7648	-4278.26
0.2226,0.7774	-4255.92
0.2162,0.7838	-4228.63
0.1921,0.8079	-4222.55
0.2065,0.7935	-4246.34
0.2049,0.7951	-4263.97
0.2052,0.7948	-4246.34
0.2032,0.7968	-4253.19
0.2151,0.7849	-4256.95
0.2114,0.7886	-4272.76
0.2476,0.7524	-4265.57
0.2290,0.7710	-4253.95
0.2087,0.7913	-4259.69
0.1975,0.8025	-4252.18
0.1883,0.8117	-4229.85
0.2328,0.7672	-4267.50
0.2187,0.7813	-4264.65
0.2042,0.7958	-4250.43
0.2219,0.7781	-4252.11
0.2021,0.7979	-4242.26
0.2044,0.7956	-4255.86
0.2037,0.7963	-4255.89
0.2011,0.7989	-4240.89
0.1959,0.8041	-4243.84
0.2169,0.7831	-4276.23
0.1943,0.8057	-4216.91
0.2178,0.7822	-4253.15
0.2168,0.7832	-4267.25
0.2341,0.7659	-4258.10
0.1950,0.8050	-4232.55
0.2054,0.7946	-4258.51
0.2220,0.7780	-4253.38
0.2326,0.7674	-4271.06
0.2419,0.7581	-4259.10
0.2309,0.7691	-4255.37
0.2002,0.7998	-4264.45
0.2277,0.7723	-4263.60
0.2269,0.7731	-4251.30
0.2039,0.7961	-4232.73
0.2006,0.7994	-4245.05
0.2130,0.7870	-4238.65
0.2217,0.7783	-4255.87
0.2110,0.7890	-4245.10
0.2338,0.7662	-4262.81
0.2135,0.7865	-4253.03
0.2087,0.7913	-4243.70
0.1892,0.8108	-4237.08
0.2220,0.7780	-4252.12
0.1965,0.8035	-4217.05
0.2152,0.7848	-4246.60
0.2090,0.7910	-4255.68
0.2086,0.7914	-4255.69
0.2175,0.7825	-4255.71
0.2196,0.7804	-4250.71
0.2118,0.7882	-4251.70
0.2195,0.7805	-4257.04
0.1856,0.8144	-4222.60
0.2302,0.7698	-4266.15
0.2100,0.7900	-4243.74
0.2026,0.7974	-4254.60
0.1787,0.8213	-4219.94
0.2107,0.7893	-4251.69
0.1927,0.8073	-4228.29
0.2037,0.7963	-4232.72
0.2209,0.7791	-4263.39
0.1983,0.8017	-4246.52
0.2005,0.7995	-4222.92
0.1924,0.8076	-4241.20
0.1789,0.8211	-4244.31
0.2076,0.7924	-4246.35
0.2283,0.7717	-4267.29
0.2134,0.7866	-4241.29
0.1889,0.8111	-4223.99
0.2374,0.7626	-4257.31
0.1826,0.8174	-4227.21
0.2051,0.7949	-4253.11
0.2131,0.7869	-4246.49
0.1782,0.8218	-4238.31
0.2065,0.7935	-4226.15
0.2390,0.7610	-4266.79
0.1808,0.8192	-4234.91
0.1971,0.8029	-4243.78
0.2249,0.7751	-4259.77
0.2032,0.7968	-4227.23
0.1896,0.8104	-4241.41
0.2338,0.7662	-4254.50
0.1999,0.8001	-4239.52
0.2132,0.7868	-4254.33
0.2078,0.7922	-4239.66
0.2055,0.7945	-4251.75
0.2212,0.7788	-4262.14
0.2145,0.7855	-4250.45
0.2044,0.7956	-4259.93
0.2318,0.7682	-4267.44
0.2026,0.7974	-4234.04
0.2039,0.7961	-4254.52
0.2354,0.7646	-4262.95
0.2176,0.7824	-4258.27
0.1924,0.8076	-4225.42
0.2207,0.7793	-4268.44
0.2242,0.7758	-4244.84
0.2265,0.7735	-4275.83
0.2234,0.7766	-4249.74
0.2100,0.7900	-4247.71
0.2491,0.7509	-4274.62
0.1959,0.8041	-4231.13
0.2307,0.7693	-4266.18
0.2392,0.7608	-4264.50
0.2421,0.7579	-4289.94
0.2291,0.7709	-4255.18
0.2411,0.7589	-4271.60
0.2607,0.7393	-4282.43
0.1949,0.8051	-4218.36
0.2404,0.7596	-4293.40
0.2224,0.7776	-4270.93
0.1839,0.8161	-4237.55
0.2270,0.7730	-4272.15
0.2343,0.7657	-4243.91
0.1962,0.8038	-4225.49
0.2076,0.7924	-4266.44
0.2085,0.7915	-4253.03
0.1793,0.8207	-4230.54
0.2175,0.7825	-4249.31
0.2430,0.7570	-4274.03
0.2323,0.7677	-4260.30
0.2385,0.7615	-4264.43
0.1743,0.8257	-4225.00
0.1934,0.8066	-4246.85
0.2429,0.7571	-4261.52
0.2123,0.7877	-4254.33
0.2496,0.7504	-4272.47
0.2305,0.7695	-4263.76
0.1867,0.8133	-4238.75
0.2049,0.7951	-4261.25
0.2115,0.7885	-4256.96
0.2204,0.7796	-4269.70
0.2187,0.7813	-4246.83
0.2329,0.7671	-4274.65
0.1977,0.8023	-4233.95
0.1913,0.8087	-4241.28
0.2070,0.7930	-4245.00
0.2114,0.7886	-4271.45
0.2029,0.7971	-4262.79
0.2223,0.7777	-4253.40
0.1696,0.8304	-4260.62
0.2057,0.7943	-4244.99
0.2253,0.7747	-4265.97
0.2091,0.7909	-4239.72
0.2131,0.7869	-4239.96
0.1838,0.8162	-4219.68
0.1855,0.8145	-4228.52
0.1950,0.8050	-4233.97
0.1853,0.8147	-4240.37
0.2139,0.7861	-4243.93
0.2075,0.7925	-4262.42
0.2422,0.7578	-4271.69
0.1977,0.8023	-4233.95
0.2118,0.7882	-4250.39
0.1926,0.8074	-4234.02
0.2078,0.7922	-4257.06
0.1808,0.8192	-4233.41
0.2559,0.7441	-4290.41
0.2010,0.7990	-4245.03
0.2381,0.7619	-4262.06
0.2068,0.7932	-4253.06
0.2021,0.7979	-4256.00
0.2013,0.7987	-4239.51
0.2253,0.7747	-4254.86
0.2115,0.7885	-4246.43
0.2373,0.7627	-4270.14
0.2276,0.7724	-4242.83
0.1935,0.8065	-4256.83
0.1950,0.8050	-4246.73
0.1947,0.8053	-4233.97
0.1998,0.8002	-4257.56
0.2475,0.7525	-4281.12
0.2230,0.7770	-4260.94
0.2016,0.7984	-4234.01
0.2119,0.7881	-4250.39
0.2019,0.7981	-4224.40
0.1999,0.8001	-4249.23
0.2455,0.7545	-4270.88
0.1867,0.8133	-4235.81
0.1821,0.8179	-4245.27
0.2089,0.7911	-4251.69
0.2259,0.7741	-4261.06
0.1946,0.8054	-4256.69
0.2362,0.7638	-4265.37
0.2226,0.7774	-4247.16
0.1797,0.8203	-4230.50
0.1816,0.8184	-4228.80
0.1946,0.8054	-4238.24
0.2059,0.7941	-4251.74
0.2566,0.7434	-4275.56
0.2074,0.7926	-4246.34
0.1952,0.8048	-4246.71
0.2157,0.7843	-4272.44
0.1881,0.8119	-4226.93
0.1797,0.8203	-4228.98
0.2314,0.7686	-4265.02
0.2150,0.7850	-4263.42
0.2132,0.7868	-4228.22
0.2048,0.7952	-4240.92
0.2005,0.7995	-4251.96
0.1845,0.8155	-4234.52
0.2336,0.7664	-4267.54
0.2292,0.7708	-4278.23
0.1980,0.8020	-4257.73
0.2110,0.7890	-4250.37
0.1917,0.8083	-4268.60
0.1931,0.8069	-4229.72
0.2402,0.7598	-4268.06
0.2296,0.7704	-4270.97
0.2152,0.7848	-4256.95
0.2172,0.7828	-4237.75
0.2133,0.7867	-4256.95
0.2119,0.7881	-4232.00
0.2284,0.7716	-4268.51
0.2187,0.7813	-4255.74
0.2326,0.7674	-4256.74
0.2228,0.7772	-4264.68
0.2356,0.7644	-4259.44
0.2044,0.7956	-4261.29
0.2336,0.7664	-4269.92
0.2134,0.7866	-4255.64
0.2091,0.7909	-4264.99
0.2138,0.7862	-4254.34
0.2307,0.7693	-4257.75
0.2083,0.7917	-4251.70
0.2029,0.7971	-4238.16
0.2240,0.7760	-4263.46
0.1962,0.8038	-4228.31
0.2286,0.7714	-4247.83
0.2245,0.7755	-4257.28
0.2026,0.7974	-4251.85
0.2018,0.7982	-4225.77
0.2114,0.7886	-4233.27
0.2075,0.7925	-4246.35
0.2474,0.7526	-4258.87
0.2241,0.7759	-4249.79
0.2303,0.7697	-4283.05
0.2155,0.7845	-4247.91
0.1863,0.8137	-4250.58
0.2116,0.7884	-4254.33
0.2446,0.7554	-4265.15
0.1942,0.8058	-4261.01
0.2047,0.7953	-4261.27
0.1999,0.8001	-4246.45
0.1880,0.8120	-4245.96
0.2225,0.7775	-4254.66
0.2243,0.7757	-4253.54
0.1734,0.8266	-4231.35
0.1964,0.8036	-4255.09
0.2468,0.7532	-4273.26
0.1910,0.8090	-4261.50
0.2166,0.7834	-4251.83
0.2153,0.7847	-4254.36
0.1936,0.8064	-4236.85
0.1913,0.8087	-4221.10
0.2417,0.7583	-4269.35
0.1879,0.8121	-4244.50
0.1958,0.8042	-4242.43
0.2064,0.7936	-4251.73
0.2122,0.7878	-4253.02
0.1878,0.8122	-4250.37
0.2236,0.7764	-4270.91
0.2135,0.7865	-4264.77
0.1868,0.8132	-4224.03
0.2171,0.7829	-4264.67
0.2042,0.7958	-4247.71
0.2070,0.7930	-4249.03
0.2121,0.7879	-4264.83
0.2262,0.7738	-4251.23
0.1882,0.8118	-4216.69
0.2239,0.7761	-4256.00
0.2373,0.7627	-4268.98
0.2006,0.7994	-4239.52
0.1984,0.8016	-4267.46
0.2185,0.7815	-4249.36
0.2099,0.7901	-4249.04
0.1952,0.8048	-4241.04
0.1978,0.8022	-4231.15
0.1915,0.8085	-4229.74
0.2199,0.7801	-4277.31
0.2105,0.7895	-4250.37
0.2012,0.7988	-4236.76
0.2201,0.7799	-4255.79
0.2055,0.7945	-4253.10
0.2117,0.7883	-4238.55
0.2515,0.7485	-4278.17
0.1876,0.8124	-4221.08
0.2088,0.7912	-4239.70
0.1964,0.8036	-4245.23
0.2019,0.7981	-4247.76
0.2045,0.7955	-4253.14
0.2446,0.7554	-4269.66
0.2363,0.7637	-4258.35
0.2245,0.7755	-4252.31
0.1664,0.8336	-4200.49
0.1764,0.8236	-4235.52
0.2082,0.7918	-4257.04
0.2148,0.7852	-4233.62
0.2249,0.7751	-4247.40
0.1833,0.8167	-4230.15
0.1811,0.8189	-4225.83
0.1885,0.8115	-4224.00
0.2103,0.7897	-4250.37
0.2146,0.7854	-4237.49
0.2204,0.7796	-4241.91
0.2019,0.7981	-4247.76
0.1798,0.8202	-4235.04
0.1946,0.8054	-4228.29
0.1869,0.8131	-4225.50
0.1841,0.8159	-4224.14
0.2109,0.7891	-4264.89
0.2099,0.7901	-4253.01
0.1881,0.8119	-4245.93
0.1981,0.8019	-4254.92
0.1929,0.8071	-4246.90
0.2088,0.7912	-4271.68
0.1923,0.8077	-4225.42
0.1977,0.8023	-4250.76
0.2047,0.7953	-4239.56
0.2048,0.7952	-4225.99
0.2051,0.7949	-4239.56
0.2086,0.7914	-4253.03
0.1985,0.8015	-4226.98
0.2023,0.7977	-4239.52
0.1996,0.8004	-4232.58
0.1933,0.8067	-4254.00
0.1969,0.8031	-4233.95
0.1978,0.8022	-4243.75
0.1922,0.8078	-4221.11
0.2011,0.7989	-4234.00
0.1963,0.8037	-4241.00
0.1961,0.8039	-4248.06
0.2000,0.8000	-4236.75
0.2292,0.7708	-4240.64
0.2093,0.7907	-4258.34
0.2330,0.7670	-4261.55
0.1895,0.8105	-4221.08
0.2435,0.7565	-4268.41
0.2297,0.7703	-4266.13
0.2267,0.7733	-4267.24
0.2057,0.7943	-4251.74
0.1969,0.8031	-4269.09
0.2025,0.7975	-4250.49
0.2580,0.7420	-4272.60
0.1937,0.8063	-4242.55
0.2323,0.7677	-4272.25
0.1970,0.8030	-4249.41
0.1847,0.8153	-4221.14
0.2030,0.7970	-4262.77
0.2198,0.7802	-4264.65
0.1988,0.8012	-4249.29
0.2115,0.7885	-4251.70
0.2009,0.7991	-4246.42
0.1987,0.8013	-4239.53
0.2243,0.7757	-4248.58
0.2110,0.7890	-4259.61
0.2087,0.7913	-4250.36
0.2135,0.7865	-4251.73
0.2121,0.7879	-4256.95
0.1959,0.8041	-4231.13
0.1869,0.8131	-4221.09
0.2195,0.7805	-4260.84
0.2067,0.7933	-4257.10
0.2225,0.7775	-4254.66
0.2088,0.7912	-4247.70
0.2270,0.7730	-4258.67
0.1806,0.8194	-4215.28
0.2031,0.7969	-4253.20
0.2120,0.7880	-4222.81
0.2208,0.7792	-4276.00
0.2036,0.7964	-4277.73
0.2135,0.7865	-4264.77
0.1849,0.8151	-4231.52
0.1996,0.8004	-4258.96
0.2015,0.7985	-4251.91
0.2153,0.7847	-4247.90
0.2254,0.7746	-4256.09
0.1947,0.8053	-4243.91
0.2056,0.7944	-4243.63
0.2074,0.7926	-4254.39
0.2126,0.7874	-4266.11
0.2322,0.7678	-4273.44
0.2162,0.7838	-4259.54
0.1995,0.8005	-4242.30
0.1963,0.8037	-4257.91
0.2043,0.7957	-4236.83
0.2183,0.7817	-4245.52
0.2101,0.7899	-4247.72
0.2029,0.7971	-4251.84
0.1982,0.8018	-4239.54
0.1890,0.8110	-4238.56
0.2167,0.7833	-4268.53
0.1668,0.8332	-4222.97
0.2460,0.7540	-4270.94
0.2148,0.7852	-4263.43
0.1942,0.8058	-4259.60
0.1977,0.8023	-4240.95
0.2041,0.7959	-4266.76
0.1822,0.8178	-4228.75
0.2260,0.7740	-4257.37
0.2283,0.7717	-4251.45
0.2039,0.7961	-4224.55
0.2015,0.7985	-4242.27
0.2187,0.7813	-4253.19
0.2025,0.7975	-4239.52
0.2167,0.7833	-4273.68
0.2070,0.7930	-4259.77
0.2056,0.7944	-4243.63
0.2226,0.7774	-4269.67
0.2027,0.7973	-4251.85
0.2092,0.7908	-4253.02
0.2034,0.7966	-4243.63
0.2059,0.7941	-4234.19
0.2079,0.7921	-4261.06
0.2198,0.7802	-4273.52
0.1977,0.8023	-4243.75
0.1995,0.8005	-4253.42
0.1992,0.8008	-4242.31
0.1816,0.8184	-4221.27
0.2013,0.7987	-4256.05
0.2264,0.7736	-4277.06
0.1890,0.8110	-4247.29
0.1859,0.8141	-4237.35
0.2114,0.7886	-4251.70
0.1979,0.8021	-4235.35
0.2007,0.7993	-4228.46
0.2013,0.7987	-4239.51
0.2068,0.7932	-4274.58
0.1811,0.8189	-4239.41
0.2010,0.7990	-4256.07
0.1962,0.8038	-4252.28
0.2077,0.7923	-4253.04
0.1902,0.8098	-4226.88
0.1844,0.8156	-4230.07
0.1890,0.8110	-4225.45
0.1908,0.8092	-4231.20
0.2270,0.7730	-4263.57
0.1828,0.8172	-4255.65
0.2019,0.7981	-4245.01
0.2122,0.7878	-4250.39
0.1936,0.8064	-4241.13
0.2046,0.7954	-4242.27
0.2147,0.7853	-4241.39
0.2060,0.7940	-4247.69
0.1911,0.8089	-4231.19
0.2236,0.7764	-4273.40
0.1940,0.8060	-4262.46
0.2047,0.7953	-4249.06
0.1976,0.8024	-4252.16
0.1910,0.8090	-4235.53
0.2052,0.7948	-4215.20
0.1923,0.8077	-4236.90
0.1753,0.8247	-4217.12
0.1879,0.8121	-4234.26
0.2185,0.7815	-4251.91
0.2176,0.7824	-4248.03
0.2213,0.7787	-4287.31
0.2146,0.7854	-4262.14
0.1984,0.8016	-4236.75
0.1751,0.8249	-4238.84
0.2120,0.7880	-4239.89
0.1908,0.8092	-4248.54
0.2245,0.7755	-4275.87
0.2250,0.7750	-4248.65
0.2096,0.7904	-4264.96
0.1883,0.8117	-4237.15
0.2158,0.7842	-4272.44
0.2052,0.7948	-4265.30
0.2139,0.7861	-4224.41
0.2114,0.7886	-4242.48
0.1835,0.8165	-4216.70
0.2129,0.7871	-4266.10
0.1927,0.8073	-4211.10
0.1824,0.8176	-4246.73
0.2077,0.7923	-4257.06
0.2088,0.7912	-4233.04
0.1949,0.8051	-4245.32
0.2252,0.7748	-4254.85
0.2048,0.7952	-4243.63
0.1723,0.8277	-4222.12
0.2029,0.7971	-4254.57
0.2158,0.7842	-4236.31
0.2068,0.7932	-4219.45
0.2349,0.7651	-4273.54
0.2060,0.7940	-4246.34
0.2056,0.7944	-4242.28
0.1927,0.8073	-4223.99
0.2329,0.7671	-4267.50
0.2183,0.7817	-4257.00
0.2354,0.7646	-4274.74
0.1874,0.8126	-4260.69
0.1902,0.8098	-4234.12
0.1937,0.8063	-4258.24
0.2374,0.7626	-4266.65
0.2214,0.7786	-4254.60
0.2252,0.7748	-4274.62
0.2097,0.7903	-4247.71
0.1935,0.8065	-4224.00
0.2105,0.7895	-4238.47
0.2244,0.7756	-4265.95
0.2251,0.7749	-4254.84
0.2070,0.7930	-4235.60
0.2389,0.7611	-4270.26
0.1928,0.8072	-4241.18
0.2042,0.7958	-4264.03
0.1977,0.8023	-4260.56
0.2019,0.7981	-4247.76
0.2178,0.7822	-4255.71
0.2347,0.7653	-4261.71
0.1945,0.8055	-4242.50
0.2095,0.7905	-4257.00
0.2297,0.7703	-4252.82
0.1803,0.8197	-4238.00
0.2051,0.7949	-4231.44
0.1986,0.8014	-4256.27
0.1898,0.8102	-4245.75
0.2242,0.7758	-4254.77
0.2057,0.7943	-4236.88
0.2060,0.7940	-4244.99
0.2114,0.7886	-4254.33
0.2513,0.7487	-4268.32
0.2000,0.8000	-4246.45
0.2051,0.7949	-4253.11
0.2296,0.7704	-4252.81
0.2033,0.7967	-4227.24
0.2279,0.7721	-4257.51
0.2386,0.7614	-4270.24
0.2148,0.7852	-4249.17
0.2308,0.7692	-4263.78
0.1979,0.8021	-4231.15
0.2147,0.7853	-4238.79
0.2339,0.7661	-4250.95
0.2284,0.7716	-4255.12
0.2336,0.7664	-4255.67
0.2261,0.7739	-4242.61
0.2180,0.7820	-4245.50
0.2043,0.7957	-4255.86
0.2004,0.7996	-4245.05
0.2268,0.7732	-4267.24
0.2413,0.7587	-4264.74
0.2429,0.7571	-4256.97
0.1984,0.8016	-4224.18
0.1942,0.8058	-4236.83
0.2108,0.7892	-4263.57
0.2126,0.7874	-4250.40
0.2299,0.7701	-4248.00
0.2117,0.7883	-4245.13
0.2073,0.7927	-4261.09
0.2255,0.7745	-4246.24
0.2099,0.7901	-4243.73
0.2322,0.7678	-4268.66
0.2134,0.7866	-4255.64
0.1957,0.8043	-4239.61
0.1932,0.8068	-4226.86
0.1946,0.8054	-4231.13
0.2242,0.7758	-4262.22
0.2062,0.7938	-4249.03
0.1998,0.8002	-4249.23
0.1919,0.8081	-4262.80
0.2042,0.7958	-4242.27
0.2167,0.7833	-4256.97
0.2215,0.7785	-4249.57
0.2441,0.7559	-4301.25
0.2166,0.7834	-4247.97
0.2192,0.7808	-4254.49
0.2083,0.7917	-4254.37
0.2039,0.7961	-4249.08
0.2143,0.7857	-4264.74
0.2568,0.7432	-4271.33
0.2080,0.7920	-4234.32
0.2079,0.7921	-4234.31
0.2061,0.7939	-4246.34
0.2321,0.7679	-4262.67
0.2069,0.7931	-4245.00
0.2149,0.7851	-4263.43
0.2003,0.7997	-4260.29
0.2156,0.7844	-4249.20
0.1981,0.8019	-4231.15
0.2428,0.7572	-4288.80
0.2190,0.7810	-4243.04
0.1980,0.8020	-4253.53
0.2166,0.7834	-4247.97
0.1929,0.8071	-4242.60
0.2104,0.7896	-4254.33
0.2256,0.7744	-4243.78
0.2235,0.7765	-4268.42
0.2353,0.7647	-4264.12
0.2248,0.7752	-4256.05
0.1769,0.8231	-4226.23
0.1871,0.8129	-4250.46
0.2184,0.7816	-4250.63
0.1901,0.8099	-4232.68
0.2280,0.7720	-4240.45
0.2367,0.7633	-4263.08
0.2214,0.7786	-4265.91
0.2042,0.7958	-4246.35
0.2041,0.7959	-4266.76
0.2051,0.7949	-4244.98
0.2340,0.7660	-4260.45
0.2257,0.7743	-4251.18
0.1993,0.8007	-4263.16
0.1825,0.8175	-4227.22
0.1853,0.8147	-4230.01
0.1887,0.8113	-4260.46
0.2024,0.7976	-4228.55
0.2142,0.7858	-4264.74
0.2148,0.7852	-4246.58
0.1815,0.8185	-4245.37
0.2123,0.7877	-4260.88
0.1786,0.8214	-4230.62
0.1899,0.8101	-4242.84
0.1962,0.8038	-4250.87
0.1958,0.8042	-4256.56
0.2067,0.7933	-4259.79
0.2277,0.7723	-4280.70
0.1980,0.8020	-4240.94
0.2203,0.7797	-4258.33
0.1929,0.8071	-4238.31
0.1833,0.8167	-4240.62
0.2197,0.7803	-4282.40
0.1876,0.8124	-4237.21
0.2108,0.7892	-4282.06
0.2315,0.7685	-4279.42
0.1676,0.8324	-4234.04
0.1811,0.8189	-4222.81
0.2262,0.7738	-4280.75
0.1991,0.8009	-4254.84
0.2200,0.7800	-4257.06
0.2223,0.7777	-4272.18
0.2047,0.7953	-4228.70
0.1711,0.8289	-4234.92
0.2432,0.7568	-4283.13
0.2217,0.7783	-4259.64
0.2433,0.7567	-4271.79
0.2115,0.7885	-4230.65
0.2107,0.7893	-4249.05
0.1901,0.8099	-4219.63
0.2443,0.7557	-4276.40
0.2132,0.7868	-4254.33
0.2022,0.7978	-4240.89
0.2315,0.7685	-4274.62
0.2132,0.7868	-4262.17
0.1797,0.8203	-4228.99
0.2256,0.7744	-4245.01
0.2173,0.7827	-4258.26
0.2208,0.7792	-4264.65
0.2449,0.7551	-4286.58
0.2269,0.7731	-4270.92
0.1873,0.8127	-4247.50
0.2282,0.7718	-4252.66
0.2193,0.7807	-4255.76
0.2345,0.7655	-4277.07
0.2496,0.7504	-4263.66
0.2127,0.7873	-4263.49
0.1956,0.8044	-4255.17
0.2365,0.7635	-4265.41
0.1863,0.8137	-4238.80
0.2136,0.7864	-4253.03
0.2468,0.7532	-4283.30
0.2211,0.7789	-4252.07
0.2084,0.7916	-4230.35
0.2318,0.7682	-4267.44
0.1943,0.8057	-4242.51
0.2167,0.7833	-4256.97
0.2321,0.7679	-4257.88
0.2245,0.7755	-4239.92
0.2241,0.7759	-4257.25
0.2150,0.7850	-4251.77
0.2318,0.7682	-4267.44
0.2148,0.7852	-4255.65
0.2163,0.7837	-4241.51
0.2255,0.7745	-4249.93
0.2183,0.7817	-4265.93
0.2170,0.7830	-4249.27
0.2088,0.7912	-4247.70
0.2111,0.7889	-4264.87
0.2040,0.7960	-4225.93
0.2210,0.7790	-4262.13
0.2318,0.7682	-4271.04
0.2047,0.7953	-4250.41
0.2139,0.7861	-4260.85
0.1913,0.8087	-4236.95
0.1930,0.8070	-4244.02
0.2020,0.7980	-4239.52
0.2104,0.7896	-4239.79
0.1993,0.8007	-4256.22
0.1949,0.8051	-4219.78
0.1966,0.8034	-4236.77
0.1931,0.8069	-4234.01
0.2244,0.7756	-4248.59
0.2143,0.7857	-4253.05
0.1981,0.8019	-4253.53
0.2140,0.7860	-4258.25
0.2123,0.7877	-4249.08
0.1914,0.8086	-4234.07
0.2045,0.7955	-4261.29
0.2001,0.7999	-4246.44
0.1996,0.8004	-4229.80
0.2234,0.7766	-4267.18
0.1950,0.8050	-4249.56
0.1924,0.8076	-4238.33
0.1973,0.8027	-4245.18
0.2070,0.7930	-4230.22
0.2092,0.7908	-4246.37
0.2075,0.7925	-4239.65
0.1875,0.8125	-4248.94
0.2082,0.7918	-4259.71
0.2209,0.7791	-4254.57
0.2161,0.7839	-4249.23
0.1983,0.8017	-4247.92
0.2002,0.7998	-4233.98
0.1810,0.8190	-4230.36
0.2355,0.7645	-4260.61
0.2036,0.7964	-4246.35
0.2391,0.7609	-4274.91
0.1833,0.8167	-4227.17
0.1877,0.8123	-4240.13
0.1940,0.8060	-4229.71
0.2225,0.7775	-4252.16
0.1754,0.8246	-4232.59
0.2173,0.7827	-4267.23
0.1992,0.8008	-4256.22
0.1821,0.8179	-4219.75
0.1964,0.8036	-4233.95
0.2017,0.7983	-4231.26
0.2209,0.7791	-4257.09
0.2340,0.7660	-4265.20
0.1857,0.8143	-4241.81
0.1898,0.8102	-4239.94
0.2175,0.7825	-4236.50
0.1877,0.8123	-4228.41
0.2093,0.7907	-4259.66
0.2184,0.7816	-4251.91
0.1999,0.8001	-4235.36
0.1753,0.8247	-4220.22
0.2335,0.7665	-4266.35
0.2056,0.7944	-4243.63
0.2149,0.7851	-4260.84
0.2043,0.7957	-4268.10
0.1999,0.8001	-4239.52
0.1964,0.8036	-4248.04
0.2226,0.7774	-4272.18
0.1734,0.8266	-4217.30
0.2156,0.7844	-4253.08
0.2342,0.7658	-4243.89
0.2301,0.7699	-4261.32
0.1921,0.8079	-4225.42
0.1941,0.8059	-4256.76
0.1627,0.8373	-4222.16
0.1856,0.8144	-4231.47
0.2316,0.7684	-4273.43
0.2197,0.7803	-4246.91
0.2150,0.7850	-4256.95
0.2070,0.7930	-4245.00
0.1818,0.8182	-4213.74
0.1908,0.8092	-4245.65
0.2388,0.7612	-4258.66
0.2336,0.7664	-4273.49
0.2180,0.7820	-4258.27
0.2010,0.7990	-4232.61
0.1806,0.8194	-4231.92
0.1970,0.8030	-4240.97
0.2009,0.7991	-4256.08
0.2411,0.7589	-4269.30
0.1972,0.8028	-4226.93
0.2216,0.7784	-4257.12
0.2057,0.7943	-4243.64
0.2001,0.7999	-4243.68
0.2172,0.7828	-4250.57
0.2371,0.7629	-4265.46
0.2250,0.7750	-4277.09
0.2283,0.7717	-4249.02
0.1733,0.8267	-4236.05
0.1958,0.8042	-4260.80
0.2128,0.7872	-4258.26
0.2133,0.7867	-4250.42
0.2186,0.7814	-4259.56
0.2227,0.7773	-4267.17
0.1674,0.8326	-4238.92
0.2186,0.7814	-4282.49
0.2035,0.7965	-4240.90
0.2266,0.7734	-4246.36
0.2183,0.7817	-4250.62
0.2078,0.7922	-4245.01
0.2071,0.7929	-4243.66
0.1994,0.8006	-4224.23
0.2005,0.7995	-4260.26
0.1972,0.8028	-4235.35
0.2257,0.7743	-4262.28
0.1741,0.8259	-4257.72
0.2121,0.7879	-4243.83
0.2106,0.7894	-4260.94
0.1958,0.8042	-4243.85
0.1959,0.8041	-4238.19
0.2344,0.7656	-4260.49
0.1836,0.8164	-4222.67
0.1999,0.8001	-4240.91
0.2133,0.7867	-4258.25
0.2027,0.7973	-4258.70
0.2074,0.7926	-4235.62
0.1946,0.8054	-4269.47
0.1975,0.8025	-4242.36
0.2098,0.7902	-4254.34
0.1990,0.8010	-4243.71
0.2002,0.7998	-4229.82
0.2152,0.7848	-4246.60
0.2043,0.7957	-4234.11
0.2070,0.7930	-4239.63
0.2108,0.7892	-4254.33
0.1933,0.8067	-4249.72
0.2290,0.7710	-4269.74
0.2048,0.7952	-4262.62
0.1918,0.8082	-4239.80
0.2210,0.7790	-4265.91
0.1903,0.8097	-4237.01
0.2010,0.7990	-4243.66
0.2241,0.7759	-4254.77
0.2150,0.7850	-4266.01
0.2022,0.7978	-4234.03
0.2056,0.7944	-4235.52
0.2039,0.7961	-4254.52
0.2213,0.7787	-4259.62
0.2312,0.7688	-4260.20
0.2178,0.7822	-4240.37
0.1832,0.8168	-4243.61
0.2261,0.7739	-4269.68
0.1975,0.8025	-4232.55
0.2033,0.7967	-4227.24
0.2277,0.7723	-4256.27
0.2044,0.7956	-4220.53
0.2007,0.7993	-4233.99
0.2209,0.7791	-4252.05
0.1907,0.8093	-4264.45
0.2111,0.7889	-4250.38
0.2244,0.7756	-4274.63
0.2189,0.7811	-4263.38
0.2042,0.7958	-4251.79
0.2230,0.7770	-4239.71
0.1993,0.8007	-4245.09
0.2090,0.7910	-4265.00
0.1907,0.8093	-4244.22
0.2058,0.7942	-4247.69
0.1823,0.8177	-4219.74
0.2305,0.7695	-4274.61
0.1983,0.8017	-4218.59
0.2298,0.7702	-4263.72
0.1966,0.8034	-4242.40
0.1814,0.8186	-4222.79
0.2023,0.7977	-4245.01
0.2167,0.7833	-4250.54
0.2353,0.7647	-4261.76
0.2229,0.7771	-4260.93
0.2017,0.7983	-4267.03
0.2096,0.7904	-4250.36
0.2091,0.7909	-4233.06
0.2574,0.7426	-4289.45
0.2553,0.7447	-4278.59
0.1975,0.8025	-4256.38
0.2341,0.7659	-4275.87
0.1882,0.8118	-4231.31
0.1948,0.8052	-4245.32
0.2409,0.7591	-4260.10
0.2406,0.7594	-4268.11
0.2020,0.7980	-4247.76
0.2169,0.7831	-4271.10
0.1847,0.8153	-4215.20
0.2131,0.7869	-4246.49
0.2122,0.7878	-4260.89
0.2103,0.7897	-4254.34
0.2184,0.7816	-4249.36
0.2246,0.7754	-4247.37
0.2190,0.7810	-4264.65
0.1934,0.8066	-4238.28
0.2405,0.7595	-4288.79
0.2263,0.7737	-4245.10
0.2039,0.7961	-4273.59
0.2250,0.7750	-4252.35
0.2052,0.7948	-4254.46
0.1994,0.8006	-4235.35
0.2209,0.7791	-4250.79
0.2182,0.7818	-4250.62
0.2224,0.7776	-4239.64
0.2183,0.7817	-4251.90
0.2177,0.7823	-4242.92
0.2070,0.7930	-4227.54
0.2203,0.7797	-4276.03
0.1950,0.8050	-4228.29
0.2468,0.7532	-4266.57
0.2119,0.7881	-4250.39
0.2279,0.7721	-4275.81
0.1838,0.8162	-4233.10
0.1967,0.8033	-4232.54
0.2161,0.7839	-4249.23
0.2299,0.7701	-4250.42
0.1996,0.8004	-4271.46
0.2032,0.7968	-4238.16
0.1789,0.8211	-4229.07
0.2074,0.7926	-4258.41
0.2170,0.7830	-4250.56
0.2032,0.7968	-4257.30
0.1908,0.8092	-4247.09
0.2160,0.7840	-4253.09
0.2133,0.7867	-4266.08
0.2398,0.7602	-4271.49
0.2092,0.7908	-4258.34
0.2017,0.7983	-4223.01
0.2116,0.7884	-4247.75
0.2258,0.7742	-4267.21
0.1925,0.8075	-4251.23
0.2202,0.7798	-4253.27
0.2058,0.7942	-4235.54
0.1937,0.8063	-4251.11
0.1950,0.8050	-4238.22
0.2201,0.7799	-4267.18
0.1905,0.8095	-4245.68
0.1871,0.8129	-4246.06
0.2252,0.7748	-4273.38
0.2183,0.7817	-4240.42
0.2073,0.7927	-4236.95
0.2086,0.7914	-4253.03
0.2187,0.7813	-4244.28
0.1978,0.8022	-4238.15
0.2138,0.7862	-4255.64
0.1980,0.8020	-4245.14
0.2076,0.7924	-4250.36
0.2136,0.7864	-4247.82
0.2402,0.7598	-4262.30
0.1905,0.8095	-4235.55
0.2227,0.7773	-4255.92
0.2023,0.7977	-4247.75
0.2205,0.7795	-4248.23
0.1868,0.8132	-4226.98
0.1886,0.8114	-4241.51
0.2036,0.7964	-4243.63
0.2292,0.7708	-4252.76
0.2057,0.7943	-4246.34
0.2186,0.7814	-4251.92
0.1835,0.8165	-4234.62
0.1803,0.8197	-4222.87
0.1824,0.8176	-4231.73
0.2169,0.7831	-4241.57
0.2080,0.7920	-4275.76
0.2275,0.7725	-4290.49
0.2060,0.7940	-4240.94
0.1955,0.8045	-4242.45
0.2088,0.7912	-4237.04
0.2083,0.7917	-4253.03
0.2202,0.7798	-4258.33
0.1937,0.8063	-4232.57
0.2071,0.7929	-4240.97
0.2117,0.7883	-4256.96
0.2137,0.7863	-4269.97
0.2029,0.7971	-4236.79
0.2143,0.7857	-4250.45
0.1998,0.8002	-4235.36
0.2066,0.7934	-4238.27
0.2138,0.7862	-4249.13
0.1992,0.8008	-4257.61
0.2128,0.7872	-4260.87
0.2061,0.7939	-4227.45
0.1963,0.8037	-4245.23
0.1872,0.8128	-4253.39
0.2084,0.7916	-4225.00
0.2250,0.7750	-4270.91
0.2062,0.7938	-4258.47
0.1906,0.8094	-4251.45
0.1839,0.8161	-4234.57
0.2211,0.7789	-4253.32
0.2096,0.7904	-4254.34
0.2369,0.7631	-4260.76
0.1995,0.8005	-4229.80
0.2230,0.7770	-4258.44
0.1860,0.8140	-4231.44
0.2098,0.7902	-4239.75
0.1944,0.8056	-4256.72
0.1847,0.8153	-4237.48
0.2417,0.7583	-4279.65
0.2091,0.7909	-4239.72
0.1593,0.8407	-4222.93
0.1996,0.8004	-4252.02
0.2287,0.7713	-4263.65
0.1775,0.8225	-4229.23
0.2558,0.7442	-4278.65
0.2151,0.7849	-4255.66
0.1827,0.8173	-4201.74
0.2000,0.8000	-4232.59
0.2259,0.7741	-4259.83
0.1968,0.8032	-4228.32
0.2156,0.7844	-4265.99
0.1968,0.8032	-4240.98
0.2184,0.7816	-4253.18
0.1885,0.8115	-4235.67
0.2346,0.7654	-4261.70
0.2192,0.7808	-4250.68
0.1946,0.8054	-4251.02
0.2158,0.7842	-4268.57
0.1955,0.8045	-4245.27
0.1967,0.8033	-4243.80
0.2080,0.7920	-4275.76
0.1871,0.8129	-4216.68
0.1907,0.8093	-4226.87
0.1959,0.8041	-4229.72
0.2051,0.7949	-4236.86
0.2013,0.7987	-4239.51
0.2020,0.7980	-4256.01
0.2104,0.7896	-4238.47
0.1900,0.8100	-4247.18
0.2036,0.7964	-4258.63
0.1979,0.8021	-4236.75
0.2259,0.7741	-4264.75
0.2036,0.7964	-4250.45
0.2071,0.7929	-4258.42
0.2101,0.7899	-4247.71
0.2344,0.7656	-4260.49
0.2116,0.7884	-4238.55
0.2224,0.7776	-4282.19
0.2131,0.7869	-4228.20
0.2143,0.7857	-4237.46
0.2010,0.7990	-4243.65
0.2076,0.7924	-4271.80
0.2264,0.7736	-4258.63
0.2144,0.7856	-4249.15
0.2356,0.7644	-4266.51
0.2168,0.7832	-4276.24
0.2144,0.7856	-4271.23
0.1821,0.8179	-4236.27
0.1950,0.8050	-4232.55
0.2311,0.7689	-4274.62
0.2252,0.7748	-4265.97
0.2055,0.7945	-4231.46
0.1945,0.8055	-4260.97
0.1849,0.8151	-4240.42
0.2141,0.7859	-4225.73
0.2121,0.7879	-4250.39
0.2025,0.7975	-4249.11
0.2160,0.7840	-4260.83
0.2113,0.7887	-4237.21
0.2091,0.7909	-4235.73
0.2057,0.7943	-4235.53
0.2148,0.7852	-4242.69
0.1954,0.8046	-4245.28
0.2175,0.7825	-4273.63
0.2342,0.7658	-4287.72
0.1879,0.8121	-4215.23
0.2187,0.7813	-4264.65
0.1962,0.8038	-4248.06
0.2087,0.7913	-4246.36
0.1982,0.8018	-4250.72
0.1956,0.8044	-4246.68
0.1735,0.8265	-4231.34
0.2132,0.7868	-4238.66
0.2116,0.7884	-4256.96
0.2170,0.7830	-4255.69
0.2011,0.7989	-4254.69
0.1784,0.8216	-4227.59
0.2005,0.7995	-4240.90
0.2185,0.7815	-4268.48
0.1858,0.8142	-4224.07
0.2213,0.7787	-4243.27
0.2031,0.7969	-4235.43
0.2268,0.7732	-4269.69
0.1977,0.8023	-4252.16
0.2060,0.7940	-4249.04
0.2086,0.7914	-4253.03
0.1954,0.8046	-4242.45
0.1834,0.8166	-4248.07
0.2247,0.7753	-4241.18
0.1791,0.8209	-4233.61
0.2086,0.7914	-4241.03
0.2181,0.7819	-4267.21
0.2059,0.7941	-4234.19
0.1699,0.8301	-4209.77
0.1972,0.8028	-4269.04
0.1576,0.8424	-4260.24
0.1979,0.8021	-4228.35
0.2077,0.7923	-4257.06
0.2227,0.7773	-4250.93
0.1728,0.8272	-4218.93
0.2090,0.7910	-4243.71
0.1560,0.8440	-4227.18
0.1993,0.8007	-4252.04
0.2120,0.7880	-4254.33
0.2101,0.7899	-4258.31
0.1796,0.8204	-4232.03
0.1952,0.8048	-4226.88
0.1800,0.8200	-4218.34
0.1972,0.8028	-4245.18
0.2222,0.7778	-4248.38
0.2155,0.7845	-4255.66
0.2035,0.7965	-4235.44
0.2166,0.7834	-4262.11
0.2120,0.7880	-4241.20
0.2086,0.7914	-4251.69
0.2280,0.7720	-4252.64
0.2341,0.7659	-4269.95
0.1895,0.8105	-4223.98
0.1987,0.8013	-4249.29
0.2064,0.7936	-4257.11
0.2063,0.7937	-4231.52
0.2170,0.7830	-4267.24
0.2168,0.7832	-4274.95
0.1816,0.8184	-4228.80
0.1818,0.8182	-4240.82
0.2172,0.7828	-4260.82
0.1906,0.8094	-4216.75
0.2090,0.7910	-4233.06
0.2305,0.7695	-4232.42
0.1933,0.8067	-4239.72
0.1810,0.8190	-4246.97
0.2085,0.7915	-4250.36
0.2117,0.7883	-4266.16
0.2314,0.7686	-4256.61
0.1964,0.8036	-4242.41
0.1982,0.8018	-4254.91
0.1997,0.8003	-4252.01
0.1851,0.8149	-4246.33
0.2087,0.7913	-4277.02
0.2091,0.7909	-4234.40
0.2145,0.7855	-4284.20
0.1806,0.8194	-4213.77
0.1859,0.8141	-4218.16
0.2155,0.7845	-4263.41
0.1866,0.8134	-4252.01
0.2291,0.7709	-4264.89
0.1979,0.8021	-4224.15
0.2045,0.7955	-4251.78
0.1957,0.8043	-4222.65
0.2500,0.7500	-4283.50
0.1860,0.8140	-4246.20
0.2083,0.7917	-4259.71
0.1946,0.8054	-4245.34
0.2088,0.7912	-4262.35
0.2091,0.7909	-4258.34
0.2593,0.7407	-4272.80
0.2024,0.7976	-4245.00
0.2269,0.7731	-4257.43
0.2255,0.7745	-4257.34
0.2111,0.7889	-4272.79
0.1904,0.8096	-4222.53
0.2428,0.7572	-4291.08
0.2004,0.7996	-4243.67
0.2212,0.7788	-4247.03
0.2342,0.7658	-4265.22
0.2253,0.7747	-4262.26
0.2125,0.7875	-4246.47
0.2089,0.7911	-4265.01
0.1931,0.8069	-4249.74
0.2317,0.7683	-4265.04
0.2314,0.7686	-4275.82
0.2453,0.7547	-4269.74
0.2268,0.7732	-4270.92
0.1893,0.8107	-4237.08
0.1927,0.8073	-4248.34
0.2160,0.7840	-4242.78
0.2091,0.7909	-4238.38
0.2254,0.7746	-4256.09
0.2119,0.7881	-4263.52
0.1862,0.8138	-4232.91
0.1985,0.8015	-4245.12
0.2105,0.7895	-4267.55
0.2295,0.7705	-4260.07
0.2051,0.7949	-4263.95
0.2173,0.7827	-4255.70
0.1852,0.8148	-4238.90
0.2279,0.7721	-4262.39
0.1920,0.8080	-4249.85
0.1955,0.8045	-4259.42
0.2280,0.7720	-4266.05
0.2024,0.7976	-4261.46
0.1946,0.8054	-4245.34
0.2285,0.7715	-4268.51
0.1861,0.8139	-4215.20
0.1765,0.8235	-4244.76
0.2294,0.7706	-4270.96
0.1949,0.8051	-4235.39
0.2070,0.7930	-4245.00
0.2162,0.7838	-4271.13
0.1863,0.8137	-4240.27
0.2076,0.7924	-4266.44
0.2074,0.7926	-4258.41
0.2114,0.7886	-4233.26
0.1809,0.8191	-4219.80
0.2223,0.7777	-4242.12
0.2065,0.7935	-4262.49
0.1893,0.8107	-4229.80
0.1977,0.8023	-4239.55
0.2099,0.7901	-4250.36
0.2149,0.7851	-4243.99
0.1939,0.8061	-4245.39
0.1886,0.8114	-4248.80
0.1983,0.8017	-4229.76
0.2039,0.7961	-4253.16
0.2021,0.7979	-4239.52
0.1947,0.8053	-4242.49
0.2386,0.7614	-4272.56
0.2269,0.7731	-4259.89
0.2134,0.7866	-4236.07
0.2417,0.7583	-4280.79
0.2123,0.7877	-4234.66
0.2158,0.7842	-4241.47
0.2306,0.7694	-4280.63
0.2509,0.7491	-4279.19
0.2051,0.7949	-4246.34
0.2364,0.7636	-4265.39
0.2338,0.7662	-4259.25
0.1948,0.8052	-4248.16
0.1947,0.8053	-4229.71
0.2148,0.7852	-4263.43
0.2034,0.7966	-4250.45
0.2130,0.7870	-4258.25
0.2209,0.7791	-4262.13
0.1987,0.8013	-4245.11
0.1937,0.8063	-4245.40
0.2230,0.7770	-4275.91
0.1831,0.8169	-4252.61
0.2335,0.7665	-4262.78
0.2118,0.7882	-4266.16
0.2073,0.7927	-4254.39
0.1870,0.8130	-4229.91
0.2338,0.7662	-4273.49
0.2005,0.7995	-4246.43
0.2202,0.7798	-4263.39
0.2269,0.7731	-4256.21
0.2159,0.7841	-4255.67
0.2154,0.7846	-4237.56
0.2284,0.7716	-4251.47
0.2165,0.7835	-4251.82
0.2027,0.7973	-4239.52
0.2097,0.7903	-4255.67
0.2162,0.7838	-4267.27
0.2146,0.7854	-4249.16
0.1889,0.8111	-4237.11
0.2024,0.7976	-4246.38
0.2086,0.7914	-4247.69
0.2059,0.7941	-4247.69
0.2215,0.7785	-4260.89
0.2106,0.7894	-4251.69
0.1944,0.8056	-4245.35
0.2067,0.7933	-4253.06
0.2104,0.7896	-4268.88
0.2189,0.7811	-4269.74
0.2256,0.7744	-4263.51
0.2053,0.7947	-4262.58
0.1871,0.8129	-4237.25
0.2168,0.7832	-4236.42
0.1809,0.8191	-4246.99
0.2184,0.7816	-4267.21
0.2286,0.7714	-4252.70
0.2064,0.7936	-4259.81
0.2230,0.7770	-4239.71
0.2180,0.7820	-4246.78
0.2078,0.7922	-4263.75
0.2089,0.7911	-4265.01
0.2211,0.7789	-4253.32
0.1924,0.8076	-4265.59
0.2221,0.7779	-4248.37
0.2577,0.7423	-4259.84
0.1892,0.8108	-4260.37
0.2091,0.7909	-4253.02
0.1812,0.8188	-4212.24
0.1952,0.8048	-4256.63
0.2036,0.7964	-4235.44
0.2426,0.7574	-4266.03
0.1933,0.8067	-4231.15
0.2050,0.7950	-4257.19
0.1790,0.8210	-4256.47
0.1902,0.8098	-4229.78
0.2238,0.7762	-4254.74
0.2335,0.7665	-4300.82
0.1641,0.8359	-4238.14
0.2422,0.7578	-4261.42
0.1859,0.8141	-4216.68
0.1809,0.8191	-4227.35
0.2042,0.7958	-4230.02
0.1986,0.8014	-4257.67
0.2046,0.7954	-4236.84
0.2226,0.7774	-4264.67
0.2280,0.7720	-4261.18
0.2012,0.7988	-4235.38
0.2010,0.7990	-4240.89
0.2145,0.7855	-4243.96
0.1941,0.8059	-4269.57
0.2184,0.7816	-4240.43
0.2372,0.7628	-4275.98
0.1734,0.8266	-4221.99
0.1829,0.8171	-4239.17
0.2084,0.7916	-4258.37
0.2042,0.7958	-4232.75
0.2207,0.7793	-4263.39
0.2079,0.7921	-4255.71
0.1780,0.8220	-4221.52
0.2103,0.7897	-4271.54
0.2097,0.7903	-4246.38
0.1935,0.8065	-4232.57
0.2005,0.7995	-4249.20
0.1919,0.8081	-4248.42
0.1735,0.8265	-4229.78
0.2213,0.7787	-4257.11
0.2316,0.7684	-4260.23
0.1744,0.8256	-4215.65
0.2325,0.7675	-4265.09
0.1791,0.8209	-4242.74
0.1916,0.8084	-4247.02
0.2200,0.7800	-4269.71
0.2119,0.7881	-4277.97
0.1648,0.8352	-4236.35
0.2257,0.7743	-4247.49
0.1966,0.8034	-4250.84
0.1945,0.8055	-4256.71
0.2167,0.7833	-4232.56
0.2053,0.7947	-4232.81
0.2069,0.7931	-4254.40
0.1937,0.8063	-4239.70
0.2023,0.7977	-4254.61
0.2010,0.7990	-4251.93
0.1994,0.8006	-4270.11
0.1918,0.8082	-4239.81
0.2228,0.7772	-4233.43
0.2100,0.7900	-4238.44
0.2234,0.7766	-4255.96
0.2257,0.7743	-4279.54
0.1982,0.8018	-4242.34
0.1985,0.8015	-4238.14
0.2177,0.7823	-4277.45
0.2029,0.7971	-4251.84
0.1924,0.8076	-4235.47
0.1992,0.8008	-4236.74
0.2265,0.7735	-4272.14
0.2224,0.7776	-4265.92
0.1908,0.8092	-4244.21
0.2196,0.7804	-4250.70
0.1763,0.8237	-4238.62
0.2130,0.7870	-4251.72
0.1985,0.8015	-4246.51
0.2130,0.7870	-4259.56
0.2270,0.7730	-4236.60
0.2327,0.7673	-4254.37
0.1781,0.8219	-4223.04
0.2141,0.7859	-4233.54
0.2090,0.7910	-4238.38
0.2087,0.7913	-4241.03
0.2238,0.7762	-4275.89
0.1772,0.8228	-4230.81
0.2138,0.7862	-4241.32
0.2010,0.7990	-4253.31
0.2194,0.7806	-4248.15
0.2140,0.7860	-4251.74
0.2179,0.7821	-4253.16
0.1890,0.8110	-4244.38
0.2225,0.7775	-4268.42
0.2042,0.7958	-4257.23
0.1926,0.8074	-4238.32
0.2189,0.7811	-4235.40
0.2111,0.7889	-4251.69
0.1903,0.8097	-4229.77
0.2433,0.7567	-4267.25
0.1894,0.8106	-4251.61
0.1940,0.8060	-4239.68
0.2231,0.7769	-4257.19
0.2001,0.7999	-4245.06
0.2059,0.7941	-4261.18
0.2023,0.7977	-4232.66
0.2288,0.7712	-4284.31
0.1700,0.8300	-4236.71
0.2238,0.7762	-4270.91
0.2045,0.7955	-4258.57
0.1979,0.8021	-4229.75
0.2015,0.7985	-4246.40
0.2209,0.7791	-4264.65
0.1886,0.8114	-4261.94
0.2177,0.7823	-4223.73
0.2184,0.7816	-4241.71
0.1825,0.8175	-4222.73
0.1978,0.8022	-4249.35
0.1864,0.8136	-4232.89
0.2225,0.7775	-4245.91
0.2428,0.7572	-4263.78
0.1990,0.8010	-4235.35
0.1827,0.8173	-4236.20
0.2425,0.7575	-4270.58
0.2172,0.7828	-4239.03
0.2175,0.7825	-4265.95
0.2266,0.7734	-4259.87
0.1996,0.8004	-4242.30
0.1911,0.8089	-4221.09
0.2393,0.7607	-4254.11
0.2295,0.7705	-4274.60
0.2090,0.7910	-4246.37
0.2405,0.7595	-4268.10
0.1892,0.8108	-4237.08
0.2006,0.7994	-4246.43
0.2223,0.7777	-4249.64
0.2168,0.7832	-4249.27
0.2065,0.7935	-4246.34
0.2280,0.7720	-4264.83
0.2161,0.7839	-4268.56
0.1968,0.8032	-4252.23
0.2085,0.7915	-4269.04
0.2031,0.7969	-4250.46
0.2011,0.7989	-4231.24
0.2426,0.7574	-4276.28
0.2117,0.7883	-4250.38
0.1921,0.8079	-4252.72
0.2079,0.7921	-4242.34
0.1821,0.8179	-4239.27
0.2158,0.7842	-4259.54
0.2268,0.7732	-4243.93
0.2187,0.7813	-4258.29
0.1936,0.8064	-4248.26
0.1972,0.8028	-4263.42
0.2050,0.7950	-4249.05
0.2133,0.7867	-4239.98
0.1871,0.8129	-4250.47
0.2250,0.7750	-4267.20
0.2057,0.7943	-4228.77
0.2198,0.7802	-4248.18
0.2098,0.7902	-4238.43
0.1841,0.8159	-4243.50
0.1977,0.8023	-4250.76
0.2422,0.7578	-4254.58
0.1767,0.8233	-4227.79
0.2353,0.7647	-4261.77
0.1938,0.8062	-4246.82
0.1729,0.8271	-4228.31
0.2065,0.7935	-4240.95
0.2127,0.7873	-4255.64
0.1850,0.8150	-4235.96
0.2144,0.7856	-4250.45
0.1913,0.8087	-4235.51
0.1996,0.8004	-4227.02
0.2297,0.7703	-4244.35
0.2334,0.7666	-4272.29
0.2182,0.7818	-4241.69
0.2148,0.7852	-4229.73
0.1833,0.8167	-4245.10
0.1758,0.8242	-4226.35
0.1716,0.8284	-4220.65
0.2261,0.7739	-4262.30
0.2384,0.7616	-4256.29
0.1886,0.8114	-4225.46
0.1966,0.8034	-4253.66
0.2014,0.7986	-4251.91
0.1972,0.8028	-4240.97
0.2326,0.7674	-4263.90
0.2495,0.7505	-4274.66
0.2159,0.7841	-4251.80
0.2182,0.7818	-4271.04
0.2038,0.7962	-4258.62
0.1706,0.8294	-4214.45
0.2308,0.7692	-4254.15
0.2164,0.7836	-4251.82
0.2160,0.7840	-4247.93
0.1960,0.8040	-4273.48
0.2031,0.7969	-4247.73
0.1871,0.8129	-4237.24
0.2194,0.7806	-4248.15
0.1801,0.8199	-4241.07
0.2307,0.7693	-4245.70
0.1956,0.8044	-4208.50
0.2455,0.7545	-4270.88
0.1783,0.8217	-4200.10
0.1875,0.8125	-4247.47
0.2106,0.7894	-4243.76
0.2399,0.7601	-4272.65
0.1920,0.8080	-4242.66
0.2207,0.7793	-4244.46
0.2262,0.7738	-4243.85
0.2120,0.7880	-4245.14
0.2366,0.7634	-4271.27
0.2199,0.7801	-4248.19
0.2018,0.7982	-4246.39
0.2392,0.7608	-4265.66
0.2215,0.7785	-4265.92
0.1902,0.8098	-4245.71
0.2480,0.7520	-4303.34
0.2231,0.7769	-4268.42
0.2073,0.7927	-4245.00
0.2403,0.7597	-4269.23
0.1840,0.8160	-4240.52
0.2085,0.7915	-4238.35
0.2258,0.7742	-4246.27
0.2592,0.7408	-4285.39
0.2132,0.7868	-4259.56
0.2235,0.7765	-4257.21
0.1863,0.8137	-4222.58
0.2083,0.7917	-4247.69
0.2347,0.7653	-4251.06
0.2724,0.7276	-4287.15
0.2231,0.7769	-4264.68
0.1997,0.8003	-4233.97
0.2063,0.7937	-4258.46
0.1991,0.8009	-4246.49
0.2092,0.7908	-4266.32
0.2455,0.7545	-4260.78
0.2215,0.7785	-4265.92
0.2361,0.7639	-4275.94
0.2323,0.7677	-4271.05
0.2185,0.7815	-4248.09
0.2162,0.7838	-4277.57
0.2072,0.7928	-4247.68
0.1994,0.8006	-4235.35
0.2174,0.7826	-4260.83
0.2301,0.7699	-4264.94
0.2062,0.7938	-4273.30
0.2248,0.7752	-4256.05
0.1719,0.8281	-4247.34
0.1844,0.8156	-4246.43
0.1945,0.8055	-4242.50
0.2099,0.7901	-4262.29
0.1907,0.8093	-4215.31
0.2099,0.7901	-4260.97
0.2058,0.7942	-4238.23
0.1797,0.8203	-4235.05
0.2125,0.7875	-4249.09
0.1943,0.8057	-4238.25
0.2011,0.7989	-4249.17
0.2235,0.7765	-4270.92
0.1971,0.8029	-4236.76
0.2204,0.7796	-4244.43
0.2201,0.7799	-4252.00
0.1852,0.8148	-4243.35
0.2079,0.7921	-4246.35
0.2538,0.7462	-4263.31
0.2330,0.7670	-4255.59
0.2304,0.7696	-4264.96
0.2189,0.7811	-4274.83
0.1655,0.8345	-4221.60
0.2017,0.7983	-4267.03
0.2339,0.7661	-4268.75
0.2117,0.7883	-4260.90
0.2285,0.7715	-4253.91
0.2096,0.7904	-4238.41
0.1927,0.8073	-4261.24
0.1883,0.8117	-4232.77
0.2327,0.7673	-4259.14
0.2135,0.7865	-4254.34
0.1947,0.8053	-4239.65
0.2029,0.7971	-4257.31
0.2182,0.7818	-4277.42
0.1784,0.8216	-4230.65
0.2093,0.7907	-4239.73
0.2002,0.7998	-4239.52
0.1913,0.8087	-4226.86
0.2153,0.7847	-4250.48
0.2006,0.7994	-4246.43
0.1919,0.8081	-4218.23
0.1938,0.8062	-4236.84
0.2070,0.7930	-4261.11
0.2128,0.7872	-4263.49
0.2263,0.7737	-4251.24
0.2232,0.7768	-4280.89
0.1952,0.8048	-4255.21
0.2080,0.7920	-4246.35
0.2431,0.7569	-4277.45
0.2337,0.7663	-4272.30
0.2336,0.7664	-4255.66
0.2136,0.7864	-4254.34
0.1941,0.8059	-4242.52
0.2164,0.7836	-4241.52
0.2161,0.7839	-4263.40
0.2466,0.7534	-4276.59
0.2107,0.7893	-4247.73
0.2077,0.7923	-4257.06
0.1780,0.8220	-4242.94
0.2051,0.7949	-4247.69
0.1926,0.8074	-4242.62
0.2563,0.7437	-4277.65
0.2120,0.7880	-4249.08
0.2315,0.7685	-4283.02
0.2056,0.7944	-4250.39
0.2074,0.7926	-4238.30
0.1924,0.8076	-4249.81
0.2298,0.7702	-4262.50
0.2104,0.7896	-4243.76
0.2578,0.7422	-4275.73
0.1946,0.8054	-4235.39
0.1918,0.8082	-4238.36
0.2296,0.7704	-4261.29
0.2103,0.7897	-4270.21
0.1855,0.8145	-4238.87
0.2297,0.7703	-4240.71
0.1899,0.8101	-4257.35
0.1814,0.8186	-4225.80
0.2139,0.7861	-4279.07
0.2193,0.7807	-4271.00
0.1896,0.8104	-4231.25
0.1903,0.8097	-4229.77
0.1987,0.8013	-4231.17
0.2135,0.7865	-4241.30
0.2120,0.7880	-4260.89
0.2337,0.7663	-4266.36
0.2025,0.7975	-4242.26
0.2197,0.7803	-4268.45
0.1863,0.8137	-4225.52
0.1912,0.8088	-4231.19
0.2061,0.7939	-4253.08
0.2143,0.7857	-4230.96
0.2079,0.7921	-4255.71
0.2332,0.7668	-4250.86
0.1829,0.8171	-4240.66
0.2050,0.7950	-4231.43
0.2033,0.7967	-4223.14
0.2095,0.7905	-4237.08
0.2127,0.7873	-4243.86
0.2145,0.7855	-4268.63
0.2133,0.7867	-4256.95
0.1897,0.8103	-4223.98
0.2148,0.7852	-4245.28
0.2022,0.7978	-4262.86
0.2172,0.7828	-4249.28
0.2049,0.7951	-4236.85
0.1920,0.8080	-4234.05
0.1702,0.8298	-4219.25
0.2033,0.7967	-4249.09
0.1959,0.8041	-4243.84
0.2396,0.7604	-4264.55
0.1636,0.8364	-4230.12
0.2051,0.7949	-4249.05
0.2052,0.7948	-4234.15
0.2026,0.7974	-4262.81
0.2319,0.7681	-4261.46
0.2113,0.7887	-4250.38
0.1895,0.8105	-4242.87
0.1938,0.8062	-4248.24
0.2244,0.7756	-4253.55
0.2083,0.7917	-4245.02
0.2080,0.7920	-4273.09
0.2308,0.7692	-4268.59
0.1760,0.8240	-4235.60
0.2446,0.7554	-4260.64
0.2324,0.7676	-4267.48
0.1933,0.8067	-4252.57
0.2224,0.7776	-4260.91
0.1928,0.8072	-4229.72
0.1914,0.8086	-4221.10
0.2307,0.7693	-4262.57
0.2324,0.7676	-4284.20
0.2066,0.7934	-4243.65
0.2418,0.7582	-4264.80
0.2036,0.7964	-4246.35
0.2042,0.7958	-4231.38
0.2377,0.7623	-4276.00
0.2413,0.7587	-4263.60
0.2234,0.7766	-4274.65
0.2010,0.7990	-4225.71
0.1958,0.8042	-4238.20
0.1965,0.8035	-4236.77
0.2097,0.7903	-4229.14
0.2502,0.7498	-4271.45
0.2137,0.7863	-4277.79
0.2112,0.7888	-4238.52
0.2264,0.7736	-4256.17
0.2048,0.7952	-4247.70
0.1999,0.8001	-4249.23
0.2403,0.7597	-4264.63
0.2043,0.7957	-4238.19
0.2046,0.7954	-4232.77
0.2245,0.7755	-4259.75
0.2144,0.7856	-4255.65
0.2107,0.7893	-4271.50
0.2416,0.7584	-4263.63
0.2166,0.7834	-4253.11
0.2101,0.7899	-4270.23
0.2287,0.7713	-4250.27
0.2106,0.7894	-4234.51
0.2093,0.7907	-4243.72
0.1920,0.8080	-4242.66
0.2448,0.7552	-4270.81
0.2051,0.7949	-4250.40
0.2201,0.7799	-4255.80
0.2115,0.7885	-4267.48
0.2059,0.7941	-4251.74
0.2096,0.7904	-4239.74
0.2362,0.7638	-4265.38
0.1918,0.8082	-4234.05
0.2417,0.7583	-4262.49
0.2165,0.7835	-4256.97
0.2152,0.7848	-4253.07
0.2107,0.7893	-4245.09
0.2325,0.7675	-4275.84
0.1997,0.8003	-4239.52
0.2323,0.7677	-4268.66
0.2029,0.7971	-4232.68
0.1949,0.8051	-4225.46
0.2232,0.7768	-4229.76
0.2123,0.7877	-4242.53
0.2170,0.7830	-4258.26
0.2141,0.7859	-4267.35
0.1877,0.8123	-4224.01
0.2041,0.7959	-4239.54
0.2281,0.7719	-4256.31
0.2148,0.7852	-4234.92
0.2019,0.7981	-4231.27
0.2139,0.7861	-4245.23
0.1832,0.8168	-4224.18
0.2072,0.7928	-4250.37
0.2252,0.7748	-4269.67
0.2286,0.7714	-4251.48
0.2005,0.7995	-4256.11
0.1986,0.8014	-4242.33
0.1736,0.8264	-4226.64
0.2334,0.7666	-4273.48
0.2077,0.7923	-4258.40
0.2133,0.7867	-4270.00
0.2030,0.7970	-4265.52
0.1944,0.8056	-4260.98
0.2117,0.7883	-4276.68
0.2075,0.7925	-4263.76
0.2289,0.7711	-4253.94
0.2478,0.7522	-4270.04
0.2219,0.7781	-4269.68
0.1826,0.8174	-4245.21
0.2201,0.7799	-4259.59
0.2046,0.7954	-4250.42
0.2419,0.7581	-4261.38
0.2039,0.7961	-4231.36
0.2148,0.7852	-4241.39
0.2151,0.7849	-4250.48
0.1724,0.8276	-4237.81
0.2109,0.7891	-4254.33
0.2259,0.7741	-4245.05
0.1987,0.8013	-4233.96
0.2101,0.7899	-4231.82
0.2131,0.7869	-4247.80
0.1974,0.8026	-4224.13
0.2089,0.7911	-4255.69
0.2152,0.7848	-4273.77
0.2166,0.7834	-4255.68
0.2214,0.7786	-4248.31
0.2046,0.7954	-4259.92
0.1991,0.8009	-4233.96
0.2021,0.7979	-4246.38
0.2008,0.7992	-4229.85
0.2303,0.7697	-4252.89
0.2193,0.7807	-4251.95
0.2022,0.7978	-4258.74
0.2111,0.7889	-4224.01
0.2066,0.7934	-4257.10
0.1865,0.8135	-4232.88
0.2099,0.7901	-4243.74
0.2008,0.7992	-4249.18
0.2102,0.7898	-4262.28
0.1906,0.8094	-4229.77
0.1962,0.8038	-4242.41
0.1865,0.8135	-4234.36
0.2186,0.7814	-4251.92
0.1917,0.8083	-4244.13
0.2515,0.7485	-4274.88
0.1894,0.8106	-4238.53
0.2015,0.7985	-4240.89
0.1920,0.8080	-4226.86
0.2246,0.7754	-4261.00
0.1927,0.8073	-4259.81
0.2480,0.7520	-4288.92
0.1711,0.8289	-4215.98
0.1879,0.8121	-4243.04
0.1998,0.8002	-4229.81
0.2125,0.7875	-4247.78
0.1750,0.8250	-4243.52
0.2032,0.7968	-4239.53
0.1857,0.8143	-4200.42
0.1988,0.8012	-4233.96
0.2232,0.7768	-4245.98
0.1994,0.8006	-4238.13
0.1816,0.8184	-4233.31
0.2489,0.7511	-4286.74
0.2169,0.7831	-4273.66
0.2076,0.7924	-4242.33
0.2303,0.7697	-4261.33
0.2097,0.7903	-4263.63
0.2098,0.7902	-4268.93
0.2207,0.7793	-4276.01
0.2267,0.7733	-4258.65
0.2123,0.7877	-4251.71
0.2357,0.7643	-4274.74
0.2192,0.7808	-4254.49
0.2140,0.7860	-4253.04
0.1893,0.8107	-4242.90
0.2137,0.7863	-4264.76
0.1915,0.8085	-4248.47
0.2152,0.7848	-4255.66
0.2126,0.7874	-4239.93
0.2102,0.7898	-4260.95
0.1919,0.8081	-4234.05
0.2192,0.7808	-4246.87
0.1927,0.8073	-4249.78
0.2003,0.7997	-4245.05
0.2003,0.7997	-4257.51
0.2107,0.7893	-4250.37
0.1885,0.8115	-4224.00
0.2078,0.7922	-4262.41
0.1875,0.8125	-4218.15
0.2212,0.7788	-4244.52
0.2016,0.7984	-4239.52
0.2182,0.7818	-4262.11
0.2218,0.7782	-4264.66
0.2073,0.7927	-4266.46
0.2262,0.7738	-4259.85
0.2163,0.7837	-4259.54
0.2047,0.7953	-4257.20
0.2323,0.7677	-4271.05
0.2088,0.7912	-4255.69
0.1913,0.8087	-4251.38
0.1960,0.8040	-4250.89
0.2035,0.7965	-4249.08
0.2239,0.7761	-4283.34
0.1963,0.8037	-4259.33
0.1864,0.8136	-4244.68
0.2110,0.7890	-4256.97
0.1951,0.8049	-4239.63
0.1720,0.8280	-4245.74
0.2168,0.7832	-4247.98
0.2083,0.7917	-4247.69
0.2066,0.7934	-4243.65
0.1999,0.8001	-4258.94
0.2007,0.7993	-4260.24
0.2162,0.7838	-4251.81
0.2325,0.7675	-4290.17
0.2090,0.7910	-4242.37
0.2105,0.7895	-4242.44
0.2061,0.7939	-4259.82
0.2251,0.7749	-4284.51
0.2203,0.7797	-4259.59
0.2366,0.7634	-4265.41
0.1795,0.8205	-4216.85
0.2026,0.7974	-4235.41
0.2055,0.7945	-4242.28
0.2183,0.7817	-4253.18
0.2203,0.7797	-4255.80
0.2305,0.7695	-4268.58
0.1949,0.8051	-4236.81
0.1854,0.8146	-4244.80
0.2075,0.7925	-4249.03
0.2209,0.7791	-4263.39
0.2441,0.7559	-4270.73
0.1890,0.8110	-4240.01
0.1986,0.8014	-4252.09
0.1892,0.8108	-4248.73
0.2243,0.7757	-4238.66
0.2133,0.7867	-4259.56
0.2081,0.7919	-4245.02
0.1838,0.8162	-4237.57
0.2011,0.7989	-4222.96
0.1837,0.8163	-4252.49
0.1925,0.8075	-4229.73
0.2131,0.7869	-4230.82
0.2162,0.7838	-4258.25
0.1933,0.8067	-4242.58
0.2215,0.7785	-4258.37
0.2008,0.7992	-4239.51
0.1862,0.8138	-4246.18
0.2039,0.7961	-4250.44
0.2110,0.7890	-4247.74
0.1914,0.8086	-4249.92
0.2152,0.7848	-4253.07
0.2208,0.7792	-4269.70
0.1873,0.8127	-4234.29
0.1866,0.8134	-4207.85
0.2002,0.7998	-4263.07
0.1885,0.8115	-4225.46
0.2133,0.7867	-4271.30
0.1947,0.8053	-4241.07
0.2130,0.7870	-4267.40
0.2072,0.7928	-4228.90
0.2042,0.7958	-4243.63
0.2192,0.7808	-4264.65
0.2233,0.7767	-4262.19
0.2192,0.7808	-4262.11
0.2089,0.7911	-4227.73
0.2078,0.7922	-4253.04
0.2042,0.7958	-4251.79
0.2188,0.7812	-4260.84
0.2289,0.7711	-4272.17
0.2127,0.7873	-4232.09
0.2131,0.7869	-4249.11
0.2037,0.7963	-4269.53
0.2221,0.7779	-4247.12
0.2244,0.7756	-4251.07
0.2263,0.7737	-4248.78
0.2060,0.7940	-4222.05
0.2087,0.7913	-4235.70
0.2266,0.7734	-4250.05
0.2045,0.7955	-4246.34
0.1981,0.8019	-4239.54
0.2175,0.7825	-4241.62
0.1942,0.8058	-4262.44
0.2002,0.7998	-4245.06
0.2237,0.7763	-4242.30
