#isoforms=['ENSG00000110080.SE.2.A.up_ENSG00000110080.SE.2.A.SE1_ENSG00000110080.SE.2.A.dn','ENSG00000110080.SE.2.B.up_ENSG00000110080.SE.2.B.dn']	exon_lens=('ENSG00000110080.SE.2.A.up',61),('ENSG00000110080.SE.2.A.SE1',96),('ENSG00000110080.SE.2.A.dn',190),('ENSG00000110080.SE.2.B.up',61),('ENSG00000110080.SE.2.B.dn',190)	iters=5000	burn_in=500	lag=10	percent_accept=94.80	proposal_type=drift	counts=(0,0):117,(0,1):2,(1,0):141,(1,1):122	assigned_counts=0:258,1:7	chrom=chr11	strand=+	mRNA_starts=126407574,126407574	mRNA_ends=126408496,126408496
sampled_psi	log_score
0.9571,0.0429	-1508.64
0.8710,0.1290	-1547.98
0.9464,0.0536	-1529.53
0.9613,0.0387	-1514.84
0.9544,0.0456	-1517.94
0.9650,0.0350	-1518.22
0.9653,0.0347	-1504.94
0.8735,0.1265	-1540.19
0.9436,0.0564	-1529.40
0.9624,0.0376	-1527.82
0.9505,0.0495	-1517.96
0.9621,0.0379	-1527.79
0.9708,0.0292	-1511.67
0.8955,0.1045	-1549.94
0.9439,0.0561	-1518.12
0.9513,0.0487	-1523.89
0.9557,0.0443	-1511.80
0.9585,0.0415	-1511.70
0.9640,0.0360	-1501.73
0.9131,0.0869	-1534.30
0.9508,0.0492	-1515.00
0.9508,0.0492	-1512.04
0.9436,0.0564	-1523.77
0.9518,0.0482	-1523.91
0.9632,0.0368	-1511.60
0.8945,0.1055	-1534.95
0.9465,0.0535	-1512.29
0.9490,0.0510	-1526.76
0.9502,0.0498	-1529.76
0.9625,0.0375	-1511.61
0.9670,0.0330	-1504.84
0.9165,0.0835	-1529.47
0.9456,0.0544	-1532.34
0.9462,0.0538	-1515.18
0.9491,0.0509	-1517.98
0.9519,0.0481	-1511.97
0.9648,0.0352	-1511.59
0.9367,0.0633	-1521.13
0.9387,0.0613	-1518.33
0.9602,0.0398	-1511.65
0.9485,0.0515	-1509.26
0.9516,0.0484	-1506.03
0.9635,0.0365	-1508.32
0.9392,0.0608	-1518.31
0.9491,0.0509	-1520.91
0.9523,0.0477	-1514.95
0.9567,0.0433	-1508.66
0.9688,0.0312	-1515.05
0.9621,0.0379	-1521.31
0.9457,0.0543	-1518.06
0.9450,0.0550	-1515.24
0.9363,0.0637	-1513.08
0.9441,0.0559	-1515.29
0.9619,0.0381	-1518.07
0.9530,0.0470	-1520.95
0.9242,0.0758	-1529.25
0.9603,0.0397	-1511.65
0.9442,0.0558	-1523.77
0.9431,0.0569	-1520.96
0.9682,0.0318	-1511.61
0.9521,0.0479	-1503.00
0.9256,0.0744	-1534.27
0.9585,0.0415	-1508.56
0.9542,0.0458	-1517.94
0.9453,0.0547	-1526.62
0.9735,0.0265	-1508.18
0.9362,0.0638	-1529.21
0.9459,0.0541	-1509.47
0.9583,0.0417	-1511.71
0.9563,0.0437	-1514.86
0.9377,0.0623	-1518.38
0.9748,0.0252	-1515.52
0.9498,0.0502	-1520.91
0.9317,0.0683	-1523.95
0.9584,0.0416	-1514.84
0.9421,0.0579	-1526.56
0.9469,0.0531	-1529.56
0.9717,0.0283	-1508.17
0.9428,0.0572	-1523.76
0.9371,0.0629	-1518.42
0.9548,0.0452	-1508.78
0.9498,0.0502	-1520.91
0.9300,0.0700	-1526.59
0.9742,0.0258	-1504.57
0.9447,0.0553	-1529.45
0.9441,0.0559	-1518.11
0.9592,0.0408	-1511.68
0.9476,0.0524	-1520.91
0.9141,0.0859	-1520.10
0.9763,0.0237	-1508.26
0.9504,0.0496	-1523.87
0.9334,0.0666	-1518.62
0.9665,0.0335	-1518.31
0.9523,0.0477	-1532.91
0.8885,0.1115	-1553.96
0.9724,0.0276	-1511.73
0.9614,0.0386	-1524.49
0.9226,0.0774	-1539.20
0.9677,0.0323	-1504.80
0.9559,0.0441	-1527.17
0.9092,0.0908	-1522.87
0.9704,0.0296	-1508.17
0.9575,0.0425	-1508.62
0.9173,0.0827	-1527.03
0.9673,0.0327	-1508.21
0.9510,0.0490	-1514.99
0.9149,0.0851	-1529.52
0.9706,0.0294	-1511.66
0.9711,0.0289	-1504.65
0.9106,0.0894	-1543.64
0.9652,0.0348	-1528.21
0.9399,0.0601	-1526.53
0.9237,0.0763	-1531.75
0.9735,0.0265	-1508.18
0.9703,0.0297	-1501.19
0.9163,0.0837	-1524.69
0.9648,0.0352	-1514.90
0.9356,0.0644	-1523.85
0.9275,0.0725	-1521.56
0.9749,0.0251	-1508.21
0.9767,0.0233	-1504.54
0.9063,0.0937	-1532.20
0.9602,0.0398	-1527.57
0.9390,0.0610	-1526.52
0.9329,0.0671	-1516.01
0.9670,0.0330	-1518.35
0.9761,0.0239	-1504.54
0.9041,0.0959	-1525.57
0.9585,0.0415	-1508.56
0.9187,0.0813	-1531.81
0.9361,0.0639	-1523.84
0.9666,0.0334	-1511.59
0.9761,0.0239	-1515.68
0.9172,0.0828	-1519.82
0.9596,0.0404	-1527.51
0.9110,0.0890	-1541.32
0.9398,0.0602	-1521.03
0.9691,0.0309	-1521.96
0.9749,0.0251	-1511.87
0.9349,0.0651	-1518.53
0.9591,0.0409	-1524.30
0.9067,0.0933	-1534.46
0.9132,0.0868	-1524.89
0.9678,0.0322	-1518.40
0.9704,0.0296	-1504.68
0.9324,0.0676	-1529.18
0.9526,0.0474	-1511.94
0.9246,0.0754	-1531.75
0.9097,0.0903	-1520.51
0.9696,0.0304	-1518.56
0.9711,0.0289	-1501.14
0.9354,0.0646	-1539.89
0.9562,0.0438	-1517.94
0.9174,0.0826	-1546.29
0.9235,0.0765	-1514.31
0.9703,0.0297	-1504.68
0.9739,0.0261	-1519.05
0.9507,0.0493	-1529.79
0.9583,0.0417	-1527.37
0.8952,0.1048	-1534.92
0.9066,0.0934	-1545.82
0.9729,0.0271	-1511.76
0.9736,0.0264	-1515.40
0.9581,0.0419	-1524.23
0.9464,0.0536	-1515.18
0.9045,0.0955	-1539.02
0.8853,0.1147	-1529.35
0.9730,0.0270	-1504.59
0.9761,0.0239	-1500.83
0.9500,0.0500	-1509.13
0.9572,0.0428	-1502.42
0.9176,0.0824	-1534.25
0.8793,0.1207	-1549.79
0.9713,0.0287	-1501.12
0.9723,0.0277	-1508.17
0.9578,0.0422	-1514.84
0.9623,0.0377	-1508.37
0.9227,0.0773	-1524.32
0.8844,0.1156	-1545.71
0.9676,0.0324	-1508.20
0.9749,0.0251	-1500.89
0.9452,0.0548	-1515.23
0.9527,0.0473	-1517.94
0.9181,0.0819	-1534.24
0.8973,0.1027	-1543.49
0.9651,0.0349	-1514.90
0.9788,0.0212	-1508.39
0.9447,0.0553	-1523.77
0.9520,0.0480	-1517.94
0.9280,0.0720	-1534.31
0.8430,0.1570	-1545.94
0.9746,0.0254	-1500.91
0.9770,0.0230	-1515.79
0.9429,0.0571	-1518.16
0.9524,0.0476	-1517.94
0.9297,0.0703	-1534.35
0.8330,0.1670	-1561.25
0.9705,0.0295	-1511.66
0.9755,0.0245	-1511.91
0.9464,0.0536	-1518.04
0.9508,0.0492	-1512.03
0.9370,0.0630	-1513.02
0.8361,0.1639	-1559.55
0.9654,0.0346	-1501.60
0.9733,0.0267	-1518.97
0.9392,0.0608	-1523.79
0.9496,0.0504	-1512.10
0.9252,0.0748	-1539.29
0.8630,0.1370	-1529.86
0.9652,0.0348	-1518.23
0.9713,0.0287	-1515.21
0.9404,0.0596	-1537.57
0.9384,0.0616	-1523.80
0.9126,0.0874	-1534.31
0.8811,0.1189	-1545.78
0.9712,0.0288	-1501.13
0.9688,0.0312	-1521.92
0.9315,0.0685	-1526.57
0.9444,0.0556	-1535.10
0.9262,0.0738	-1524.16
0.8490,0.1510	-1548.94
0.9672,0.0328	-1518.36
0.9667,0.0333	-1521.69
0.9505,0.0495	-1529.78
0.9602,0.0398	-1521.20
0.9179,0.0821	-1524.59
0.8671,0.1329	-1542.48
0.9711,0.0289	-1508.16
0.9600,0.0400	-1508.48
0.9450,0.0550	-1520.93
0.9614,0.0386	-1501.98
0.9266,0.0734	-1524.14
0.8324,0.1676	-1559.66
0.9604,0.0396	-1511.65
0.9497,0.0503	-1517.97
0.9443,0.0557	-1520.94
0.9627,0.0373	-1505.10
0.9280,0.0720	-1531.75
0.8435,0.1565	-1547.58
0.9547,0.0453	-1514.89
0.9537,0.0463	-1520.96
0.9493,0.0507	-1509.19
0.9687,0.0313	-1518.48
0.9376,0.0624	-1521.10
0.8429,0.1571	-1557.71
0.9516,0.0484	-1511.99
0.9549,0.0451	-1514.88
0.9333,0.0667	-1515.98
0.9625,0.0375	-1508.36
0.9308,0.0692	-1516.18
0.8491,0.1509	-1542.02
0.9588,0.0412	-1517.98
0.9563,0.0437	-1514.86
0.9264,0.0736	-1524.15
0.9567,0.0433	-1514.85
0.9407,0.0593	-1509.95
0.8680,0.1320	-1542.43
0.9518,0.0482	-1520.93
0.9660,0.0340	-1501.54
0.9313,0.0687	-1521.36
0.9574,0.0426	-1514.85
0.9270,0.0730	-1521.58
0.8801,0.1199	-1535.83
0.9571,0.0429	-1517.95
0.9743,0.0257	-1511.83
0.9456,0.0544	-1520.92
0.9486,0.0514	-1517.99
0.9309,0.0691	-1521.38
0.8972,0.1028	-1543.49
0.9578,0.0422	-1514.84
0.9692,0.0308	-1501.28
0.9475,0.0525	-1526.70
0.9469,0.0531	-1532.43
0.9310,0.0690	-1521.37
0.9052,0.0948	-1536.76
0.9555,0.0445	-1514.87
0.9657,0.0343	-1511.59
0.9481,0.0519	-1523.81
0.9422,0.0578	-1515.39
0.9331,0.0669	-1518.64
0.9212,0.0788	-1534.24
0.9613,0.0387	-1505.21
0.9747,0.0253	-1504.56
0.9489,0.0511	-1520.91
0.9488,0.0512	-1512.15
0.9273,0.0727	-1519.02
0.9071,0.0929	-1527.60
0.9562,0.0438	-1521.03
0.9769,0.0231	-1500.79
0.9602,0.0398	-1511.65
0.9363,0.0637	-1518.46
0.9207,0.0793	-1526.88
0.9079,0.0921	-1529.85
0.9524,0.0476	-1520.94
0.9765,0.0235	-1504.54
0.9542,0.0458	-1517.94
0.9331,0.0669	-1521.27
0.9048,0.0952	-1541.27
0.8953,0.1047	-1530.62
0.9522,0.0478	-1508.97
0.9787,0.0213	-1496.90
0.9485,0.0515	-1512.16
0.9082,0.0918	-1532.12
0.9012,0.0988	-1550.12
0.9077,0.0923	-1527.57
0.9511,0.0489	-1520.92
0.9721,0.0279	-1504.62
0.9495,0.0505	-1517.98
0.9068,0.0932	-1529.90
0.8756,0.1244	-1545.92
0.9107,0.0893	-1541.32
0.9571,0.0429	-1521.06
0.9676,0.0324	-1511.60
0.9482,0.0518	-1520.91
0.9136,0.0864	-1534.29
0.8716,0.1284	-1544.14
0.9227,0.0773	-1529.28
0.9601,0.0399	-1514.83
0.9677,0.0323	-1518.40
0.9502,0.0498	-1515.02
0.9204,0.0796	-1526.89
0.8990,0.1010	-1536.92
0.8981,0.1019	-1534.78
0.9576,0.0424	-1514.84
0.9638,0.0362	-1511.59
0.9504,0.0496	-1529.77
0.9343,0.0657	-1521.22
0.9031,0.0969	-1541.27
0.9081,0.0919	-1534.42
0.9619,0.0381	-1521.30
0.9668,0.0332	-1501.48
0.9572,0.0428	-1517.96
0.9405,0.0595	-1518.25
0.9001,0.0999	-1525.90
0.9019,0.0981	-1543.49
0.9587,0.0413	-1521.12
0.9706,0.0294	-1522.16
0.9388,0.0612	-1529.25
0.9475,0.0525	-1515.12
0.9206,0.0794	-1531.79
0.9019,0.0981	-1541.28
0.9549,0.0451	-1530.14
0.9711,0.0289	-1518.71
0.9337,0.0663	-1523.89
0.9512,0.0488	-1517.95
0.9188,0.0812	-1524.54
0.9169,0.0831	-1541.45
0.9538,0.0462	-1530.05
0.9702,0.0298	-1515.13
0.9397,0.0603	-1523.78
0.9482,0.0518	-1518.00
0.9290,0.0710	-1524.04
0.9382,0.0618	-1512.92
0.9542,0.0458	-1511.86
0.9677,0.0323	-1498.00
0.9447,0.0553	-1506.74
0.9367,0.0633	-1513.04
0.9294,0.0706	-1539.49
0.9361,0.0639	-1518.47
0.9401,0.0599	-1534.79
0.9604,0.0396	-1514.83
0.9462,0.0538	-1515.18
0.9324,0.0676	-1523.93
0.9312,0.0688	-1529.18
0.9436,0.0564	-1520.95
0.9339,0.0661	-1515.94
0.9476,0.0524	-1526.70
0.9544,0.0456	-1514.89
0.9525,0.0475	-1514.94
0.9368,0.0632	-1531.91
0.9434,0.0566	-1518.14
0.9407,0.0593	-1515.48
0.9301,0.0699	-1531.77
0.9495,0.0505	-1512.11
0.9529,0.0471	-1508.92
0.9424,0.0576	-1515.38
0.9493,0.0507	-1526.77
0.9530,0.0470	-1529.97
0.9323,0.0677	-1531.80
0.9586,0.0414	-1514.84
0.9422,0.0578	-1520.97
0.9475,0.0525	-1512.23
0.9426,0.0574	-1515.37
0.9536,0.0464	-1520.96
0.9437,0.0563	-1546.32
0.9547,0.0453	-1520.98
0.9526,0.0474	-1508.94
0.9408,0.0592	-1523.77
0.9321,0.0679	-1529.18
0.9473,0.0527	-1518.02
0.9516,0.0484	-1514.97
0.9292,0.0708	-1524.04
0.9520,0.0480	-1508.98
0.9506,0.0494	-1520.92
0.9305,0.0695	-1521.39
0.9438,0.0562	-1518.12
0.9456,0.0544	-1518.07
0.9352,0.0648	-1513.18
0.9445,0.0555	-1526.60
0.9687,0.0313	-1504.75
0.9361,0.0639	-1523.84
0.9516,0.0484	-1506.03
0.9401,0.0599	-1526.53
0.9363,0.0637	-1521.14
0.9426,0.0574	-1518.17
0.9709,0.0291	-1511.67
0.9437,0.0563	-1518.13
0.9364,0.0636	-1523.83
0.9257,0.0743	-1529.22
0.9278,0.0722	-1516.43
0.9442,0.0558	-1515.28
0.9771,0.0229	-1504.54
0.9418,0.0582	-1518.20
0.9454,0.0546	-1512.37
0.9058,0.0942	-1529.96
0.9117,0.0883	-1527.33
0.9474,0.0526	-1523.80
0.9723,0.0277	-1511.73
0.9259,0.0741	-1529.22
0.9444,0.0556	-1529.43
0.9057,0.0943	-1536.75
0.9242,0.0758	-1534.25
0.9513,0.0487	-1520.92
0.9789,0.0211	-1508.40
0.9167,0.0833	-1529.46
0.9320,0.0680	-1523.94
0.8958,0.1042	-1534.89
0.9223,0.0777	-1521.87
0.9507,0.0493	-1506.12
0.9800,0.0200	-1504.58
0.9213,0.0787	-1536.70
0.9225,0.0775	-1531.76
0.8972,0.1028	-1523.99
0.9284,0.0716	-1524.07
0.9602,0.0398	-1505.28
0.9757,0.0243	-1515.62
0.9232,0.0768	-1529.27
0.9304,0.0696	-1529.18
0.9054,0.0946	-1527.72
0.9212,0.0788	-1531.78
0.9647,0.0353	-1511.59
0.9735,0.0265	-1511.79
0.9270,0.0730	-1524.12
0.9334,0.0666	-1523.90
0.9063,0.0937	-1518.58
0.9362,0.0638	-1515.77
0.9681,0.0319	-1511.61
0.9639,0.0361	-1505.02
0.9299,0.0701	-1529.18
0.9418,0.0582	-1526.55
0.8988,0.1012	-1543.48
0.9527,0.0473	-1514.94
0.9629,0.0371	-1508.34
0.9710,0.0290	-1501.15
0.9283,0.0717	-1531.75
0.9333,0.0667	-1523.90
0.8999,0.1001	-1534.70
0.9626,0.0374	-1514.85
0.9591,0.0409	-1524.30
0.9685,0.0315	-1508.18
0.9432,0.0568	-1518.15
0.9226,0.0774	-1541.68
0.9026,0.0974	-1532.37
0.9602,0.0398	-1514.83
0.9386,0.0614	-1515.61
0.9744,0.0256	-1508.20
0.9396,0.0604	-1512.80
0.9170,0.0830	-1527.04
0.8961,0.1039	-1534.87
0.9598,0.0402	-1511.66
0.9276,0.0724	-1529.20
0.9705,0.0295	-1508.17
0.9390,0.0610	-1515.58
0.9247,0.0753	-1529.24
0.8913,0.1087	-1545.64
0.9615,0.0385	-1508.41
0.9382,0.0618	-1523.80
0.9712,0.0288	-1515.20
0.9308,0.0692	-1518.78
0.9211,0.0789	-1519.49
0.8949,0.1051	-1543.50
0.9580,0.0420	-1505.46
0.9376,0.0624	-1521.10
0.9640,0.0360	-1518.16
0.9414,0.0586	-1509.88
0.9110,0.0890	-1541.32
0.8928,0.1072	-1526.56
0.9553,0.0447	-1514.88
0.9278,0.0722	-1531.75
0.9702,0.0298	-1504.68
0.9365,0.0635	-1529.21
0.9140,0.0860	-1524.84
0.8907,0.1093	-1528.87
0.9577,0.0423	-1517.96
0.9421,0.0579	-1515.40
0.9679,0.0321	-1504.79
0.9366,0.0634	-1510.36
0.9259,0.0741	-1516.59
0.9222,0.0778	-1526.82
0.9617,0.0383	-1521.29
0.9288,0.0712	-1516.34
0.9614,0.0386	-1508.41
0.9387,0.0613	-1521.06
0.9306,0.0694	-1536.97
0.9008,0.0992	-1532.46
0.9653,0.0347	-1524.89
0.9217,0.0783	-1514.51
0.9642,0.0358	-1514.88
0.9507,0.0493	-1520.92
0.9359,0.0641	-1523.84
0.9128,0.0872	-1524.91
0.9650,0.0350	-1508.27
0.9059,0.0941	-1536.74
0.9715,0.0285	-1504.64
0.9456,0.0544	-1523.78
0.9387,0.0613	-1510.15
0.9063,0.0937	-1532.20
0.9644,0.0356	-1504.99
0.9284,0.0716	-1518.94
0.9736,0.0264	-1504.58
0.9438,0.0562	-1520.95
0.9388,0.0612	-1518.33
0.8871,0.1129	-1539.49
0.9622,0.0378	-1514.85
0.9278,0.0722	-1526.64
0.9648,0.0352	-1514.90
0.9314,0.0686	-1518.74
0.9495,0.0505	-1517.98
0.8935,0.1065	-1539.26
0.9592,0.0408	-1517.99
0.9369,0.0631	-1545.40
0.9619,0.0381	-1518.07
0.9423,0.0577	-1518.18
0.9592,0.0408	-1505.36
0.8640,0.1360	-1542.67
0.9590,0.0410	-1508.53
0.9365,0.0635	-1521.13
0.9626,0.0374	-1508.36
0.9500,0.0500	-1520.91
0.9669,0.0331	-1504.84
0.8854,0.1146	-1537.52
0.9599,0.0401	-1514.83
0.9369,0.0631	-1523.82
0.9576,0.0424	-1517.96
0.9585,0.0415	-1508.56
0.9733,0.0267	-1508.18
0.8749,0.1251	-1530.38
0.9532,0.0468	-1508.90
0.9403,0.0597	-1521.02
0.9569,0.0431	-1521.05
0.9453,0.0547	-1506.68
0.9653,0.0347	-1514.91
0.8722,0.1278	-1546.03
0.9478,0.0522	-1523.81
0.9549,0.0451	-1533.20
0.9558,0.0442	-1524.09
0.9444,0.0556	-1535.10
0.9687,0.0313	-1508.18
0.8810,0.1190	-1539.77
0.9460,0.0540	-1523.78
0.9424,0.0576	-1512.58
0.9472,0.0528	-1526.68
0.9476,0.0524	-1518.01
0.9631,0.0369	-1521.38
0.8921,0.1079	-1539.30
0.9426,0.0574	-1534.96
0.9311,0.0689	-1521.36
0.9512,0.0488	-1532.80
0.9515,0.0485	-1517.95
0.9702,0.0298	-1501.20
0.8699,0.1301	-1548.02
0.9519,0.0481	-1508.99
0.9371,0.0629	-1523.82
0.9514,0.0486	-1517.95
0.9528,0.0472	-1520.94
0.9688,0.0312	-1511.62
0.8752,0.1248	-1547.88
0.9603,0.0397	-1498.90
0.9370,0.0630	-1556.21
0.9482,0.0518	-1541.26
0.9494,0.0506	-1512.12
0.9658,0.0342	-1524.94
0.8764,0.1236	-1543.94
0.9646,0.0354	-1501.67
0.9582,0.0418	-1508.57
0.9612,0.0388	-1521.26
0.9425,0.0575	-1529.36
0.9667,0.0333	-1511.59
0.8885,0.1115	-1547.74
0.9681,0.0319	-1511.60
0.9637,0.0363	-1518.15
0.9617,0.0383	-1514.84
0.9471,0.0529	-1515.14
0.9598,0.0402	-1508.49
0.8907,0.1093	-1547.74
0.9701,0.0299	-1504.69
0.9645,0.0355	-1511.59
0.9604,0.0396	-1518.02
0.9552,0.0448	-1502.64
0.9685,0.0315	-1504.76
0.8873,0.1127	-1537.42
0.9637,0.0363	-1527.99
0.9666,0.0334	-1514.95
0.9526,0.0474	-1505.94
0.9511,0.0489	-1523.89
0.9696,0.0304	-1518.56
0.8908,0.1092	-1558.24
0.9721,0.0279	-1508.17
0.9676,0.0324	-1518.39
0.9649,0.0351	-1501.64
0.9484,0.0516	-1523.82
0.9687,0.0313	-1525.35
0.8688,0.1312	-1538.60
0.9723,0.0277	-1508.17
0.9668,0.0332	-1511.59
0.9643,0.0357	-1528.07
0.9581,0.0419	-1514.84
0.9646,0.0354	-1511.59
0.8721,0.1279	-1549.87
0.9662,0.0338	-1508.23
0.9680,0.0320	-1515.01
0.9571,0.0429	-1508.64
0.9526,0.0474	-1517.94
0.9479,0.0521	-1512.21
0.8553,0.1447	-1546.83
0.9645,0.0355	-1514.89
0.9624,0.0376	-1511.61
0.9619,0.0381	-1505.16
0.9587,0.0413	-1505.40
0.9429,0.0571	-1518.16
0.8482,0.1518	-1547.26
0.9561,0.0439	-1524.11
0.9660,0.0340	-1514.93
0.9666,0.0334	-1511.59
0.9528,0.0472	-1517.94
0.9462,0.0538	-1515.18
0.8456,0.1544	-1547.44
0.9491,0.0509	-1529.68
0.9582,0.0418	-1524.23
0.9612,0.0388	-1505.21
0.9447,0.0553	-1520.93
0.9438,0.0562	-1532.23
0.8530,0.1470	-1545.20
0.9525,0.0475	-1520.94
0.9639,0.0361	-1514.88
0.9516,0.0484	-1526.88
0.9461,0.0539	-1523.78
0.9482,0.0518	-1526.72
0.8688,0.1312	-1546.16
0.9452,0.0548	-1512.38
0.9685,0.0315	-1501.34
0.9551,0.0449	-1517.94
0.9547,0.0453	-1505.74
0.9455,0.0545	-1535.19
0.8898,0.1102	-1522.67
0.9365,0.0635	-1518.45
0.9664,0.0336	-1498.15
0.9516,0.0484	-1511.99
0.9381,0.0619	-1518.36
0.9392,0.0608	-1515.57
0.8949,0.1051	-1532.79
0.9324,0.0676	-1529.18
0.9622,0.0378	-1518.08
0.9424,0.0576	-1515.38
0.9387,0.0613	-1529.25
0.9414,0.0586	-1523.77
0.8837,0.1163	-1547.75
0.9314,0.0686	-1529.18
0.9643,0.0357	-1514.88
0.9567,0.0433	-1511.76
0.9261,0.0739	-1521.63
0.9407,0.0593	-1523.77
0.8665,0.1335	-1559.35
0.9355,0.0645	-1521.17
0.9586,0.0414	-1511.69
0.9570,0.0430	-1524.16
0.9212,0.0788	-1534.24
0.9393,0.0607	-1529.26
0.8688,0.1312	-1553.72
0.9323,0.0677	-1534.42
0.9514,0.0486	-1517.95
0.9555,0.0445	-1511.80
0.9337,0.0663	-1529.18
0.9302,0.0698	-1531.77
0.8928,0.1072	-1532.92
0.9351,0.0649	-1518.52
0.9544,0.0456	-1514.89
0.9515,0.0485	-1526.88
0.9375,0.0625	-1521.10
0.9246,0.0754	-1551.81
0.8972,0.1028	-1534.82
0.9295,0.0705	-1526.60
0.9550,0.0450	-1527.10
0.9487,0.0513	-1515.07
0.9453,0.0547	-1532.33
0.9418,0.0582	-1520.98
0.9018,0.0982	-1545.71
0.9380,0.0620	-1512.93
0.9488,0.0512	-1509.23
0.9567,0.0433	-1521.04
0.9309,0.0691	-1542.18
0.9451,0.0549	-1506.70
0.8893,0.1107	-1543.57
0.9266,0.0734	-1529.21
0.9482,0.0518	-1520.91
0.9612,0.0388	-1521.26
0.9239,0.0761	-1531.75
0.9531,0.0469	-1520.95
0.8890,0.1110	-1535.26
0.9250,0.0750	-1519.18
0.9487,0.0513	-1515.07
0.9561,0.0439	-1514.86
0.9222,0.0778	-1519.40
0.9567,0.0433	-1514.85
0.8984,0.1016	-1543.48
0.9174,0.0826	-1529.43
0.9521,0.0479	-1514.95
0.9543,0.0457	-1508.82
0.9158,0.0842	-1524.72
0.9592,0.0408	-1508.52
0.9104,0.0896	-1527.40
0.9065,0.0935	-1543.55
0.9534,0.0466	-1505.86
0.9553,0.0447	-1511.82
0.9448,0.0552	-1526.61
0.9569,0.0431	-1514.85
0.9123,0.0877	-1517.92
0.9034,0.0966	-1534.57
0.9480,0.0520	-1515.10
0.9550,0.0450	-1511.83
0.9353,0.0647	-1539.88
0.9376,0.0624	-1510.26
0.9065,0.0935	-1534.46
0.8992,0.1008	-1543.48
0.9419,0.0581	-1518.19
0.9495,0.0505	-1517.97
0.9531,0.0469	-1511.91
0.9316,0.0684	-1529.18
0.9096,0.0904	-1541.30
0.9099,0.0901	-1527.43
0.9399,0.0601	-1521.03
0.9559,0.0441	-1521.02
0.9492,0.0508	-1532.62
0.9350,0.0650	-1510.53
0.9172,0.0828	-1529.44
0.9054,0.0946	-1527.72
0.9402,0.0598	-1515.51
0.9482,0.0518	-1512.19
0.9538,0.0462	-1505.83
0.9376,0.0624	-1512.97
0.9310,0.0690	-1523.97
0.9210,0.0790	-1526.87
0.9344,0.0656	-1518.56
0.9471,0.0529	-1512.26
0.9567,0.0433	-1530.33
0.9419,0.0581	-1518.19
0.9201,0.0799	-1536.68
0.9348,0.0652	-1523.86
0.9327,0.0673	-1513.41
0.9569,0.0431	-1521.05
0.9601,0.0399	-1514.83
0.9432,0.0568	-1523.76
0.9306,0.0694	-1531.77
0.9328,0.0672	-1526.55
0.9335,0.0665	-1545.03
0.9492,0.0508	-1520.91
0.9493,0.0507	-1520.91
0.9435,0.0565	-1515.32
0.9470,0.0530	-1520.91
0.9362,0.0638	-1526.52
0.9270,0.0730	-1519.04
0.9553,0.0447	-1524.06
0.9523,0.0477	-1514.95
0.9476,0.0524	-1509.32
0.9493,0.0507	-1520.91
0.9443,0.0557	-1518.11
0.9217,0.0783	-1544.10
0.9633,0.0367	-1511.60
0.9510,0.0490	-1526.85
0.9451,0.0549	-1515.24
0.9437,0.0563	-1518.13
0.9556,0.0444	-1524.08
0.9313,0.0687	-1529.18
0.9547,0.0453	-1514.89
0.9447,0.0553	-1509.58
0.9473,0.0527	-1523.80
0.9435,0.0565	-1526.58
0.9579,0.0421	-1517.97
0.9393,0.0607	-1523.79
0.9580,0.0420	-1514.84
0.9543,0.0457	-1520.97
0.9392,0.0608	-1532.00
0.9450,0.0550	-1515.24
0.9624,0.0376	-1501.88
0.9415,0.0585	-1515.43
0.9610,0.0390	-1505.23
0.9566,0.0434	-1505.57
0.9374,0.0626	-1531.93
0.9519,0.0481	-1511.98
0.9703,0.0297	-1504.68
0.9350,0.0650	-1518.53
0.9580,0.0420	-1514.84
0.9650,0.0350	-1521.53
0.9420,0.0580	-1512.62
0.9593,0.0407	-1511.67
0.9638,0.0362	-1531.28
0.9237,0.0763	-1526.77
0.9609,0.0391	-1508.43
0.9688,0.0312	-1508.18
0.9445,0.0555	-1515.27
0.9579,0.0421	-1517.97
0.9582,0.0418	-1505.44
0.9318,0.0682	-1526.56
0.9683,0.0317	-1521.87
0.9678,0.0322	-1515.00
0.9493,0.0507	-1532.63
0.9564,0.0436	-1508.68
0.9636,0.0364	-1534.53
0.9393,0.0607	-1521.05
0.9668,0.0332	-1518.33
0.9712,0.0288	-1529.28
0.9331,0.0669	-1526.54
0.9537,0.0463	-1505.84
0.9568,0.0432	-1514.85
0.9420,0.0580	-1523.77
0.9688,0.0312	-1532.22
0.9752,0.0248	-1500.88
0.9387,0.0613	-1510.15
0.9529,0.0471	-1520.94
0.9612,0.0388	-1514.84
0.9460,0.0540	-1518.05
0.9682,0.0318	-1511.61
0.9780,0.0220	-1508.34
0.9411,0.0589	-1515.46
0.9527,0.0473	-1514.94
0.9472,0.0528	-1518.02
0.9501,0.0499	-1526.80
0.9694,0.0306	-1511.63
0.9806,0.0194	-1500.68
0.9517,0.0483	-1517.95
0.9563,0.0437	-1521.03
0.9486,0.0514	-1517.99
0.9425,0.0575	-1509.78
0.9737,0.0263	-1504.58
0.9783,0.0217	-1496.93
0.9559,0.0441	-1508.71
0.9525,0.0475	-1514.94
0.9605,0.0395	-1521.21
0.9330,0.0670	-1531.81
0.9728,0.0272	-1501.02
0.9779,0.0221	-1508.33
0.9569,0.0431	-1502.45
0.9462,0.0538	-1520.92
0.9581,0.0419	-1514.84
0.9427,0.0573	-1515.36
0.9700,0.0300	-1511.65
0.9735,0.0265	-1497.37
0.9587,0.0413	-1517.98
0.9409,0.0591	-1504.40
0.9580,0.0420	-1508.59
0.9306,0.0694	-1521.39
0.9709,0.0291	-1497.64
0.9754,0.0246	-1511.91
0.9428,0.0572	-1520.96
0.9437,0.0563	-1529.40
0.9418,0.0582	-1520.98
0.9271,0.0729	-1529.20
0.9735,0.0265	-1508.18
0.9752,0.0248	-1508.22
0.9539,0.0461	-1511.88
0.9510,0.0490	-1517.95
0.9465,0.0535	-1512.30
0.9241,0.0759	-1544.25
0.9709,0.0291	-1508.17
0.9785,0.0215	-1504.55
0.9534,0.0466	-1508.88
0.9594,0.0406	-1518.00
0.9447,0.0553	-1512.42
0.9214,0.0786	-1524.39
0.9732,0.0268	-1501.00
0.9818,0.0182	-1516.61
0.9558,0.0442	-1521.01
0.9621,0.0379	-1518.08
0.9457,0.0543	-1512.35
0.9325,0.0675	-1521.30
0.9711,0.0289	-1508.16
0.9825,0.0175	-1500.66
0.9590,0.0410	-1508.53
0.9606,0.0394	-1514.84
0.9510,0.0490	-1520.92
0.9416,0.0584	-1512.64
0.9738,0.0262	-1519.03
0.9797,0.0203	-1512.33
0.9575,0.0425	-1505.50
0.9678,0.0322	-1515.00
0.9598,0.0402	-1518.01
0.9426,0.0574	-1529.36
0.9761,0.0239	-1511.96
0.9750,0.0250	-1508.22
0.9598,0.0402	-1511.66
0.9698,0.0302	-1501.24
0.9617,0.0383	-1511.62
0.9378,0.0622	-1548.22
0.9740,0.0260	-1504.57
0.9771,0.0229	-1508.29
0.9621,0.0379	-1508.38
0.9730,0.0270	-1515.34
0.9554,0.0446	-1539.38
0.9216,0.0784	-1529.31
0.9757,0.0243	-1508.24
0.9798,0.0202	-1496.81
0.9665,0.0335	-1511.59
0.9759,0.0241	-1500.84
0.9456,0.0544	-1509.50
0.9243,0.0757	-1536.76
0.9772,0.0228	-1504.54
0.9785,0.0215	-1496.91
0.9611,0.0389	-1524.46
0.9826,0.0174	-1504.69
0.9537,0.0463	-1508.86
0.9262,0.0738	-1524.16
0.9764,0.0236	-1508.26
0.9794,0.0206	-1504.57
0.9569,0.0431	-1508.65
0.9808,0.0192	-1500.67
0.9566,0.0434	-1514.85
0.9122,0.0878	-1534.32
0.9705,0.0295	-1508.17
0.9773,0.0227	-1500.78
0.9605,0.0395	-1521.22
0.9749,0.0251	-1515.53
0.9638,0.0362	-1511.59
0.9276,0.0724	-1513.90
0.9746,0.0254	-1504.56
0.9766,0.0234	-1500.81
0.9626,0.0374	-1505.11
0.9715,0.0285	-1511.69
0.9678,0.0322	-1511.60
0.9192,0.0808	-1524.51
0.9727,0.0273	-1508.17
0.9780,0.0220	-1496.95
0.9569,0.0431	-1511.75
0.9740,0.0260	-1500.94
0.9620,0.0380	-1521.31
0.9269,0.0731	-1524.13
0.9767,0.0233	-1508.27
0.9800,0.0200	-1504.58
0.9602,0.0398	-1518.02
0.9751,0.0249	-1504.55
0.9585,0.0415	-1517.98
0.9379,0.0621	-1523.80
0.9716,0.0284	-1504.63
0.9755,0.0245	-1497.18
0.9493,0.0507	-1517.98
0.9772,0.0228	-1504.54
0.9571,0.0429	-1502.43
0.9355,0.0645	-1518.50
0.9747,0.0253	-1508.21
0.9639,0.0361	-1518.16
0.9329,0.0671	-1516.02
0.9829,0.0171	-1496.61
0.9546,0.0454	-1517.94
0.9309,0.0691	-1529.18
0.9743,0.0257	-1508.20
0.9443,0.0557	-1523.77
0.9220,0.0780	-1521.89
0.9788,0.0212	-1512.22
0.9494,0.0506	-1526.78
0.9359,0.0641	-1521.16
0.9769,0.0231	-1500.79
0.9503,0.0497	-1529.77
0.9123,0.0877	-1531.98
0.9809,0.0191	-1504.61
0.9410,0.0590	-1523.77
0.9454,0.0546	-1529.48
0.9811,0.0189	-1516.47
0.9464,0.0536	-1512.30
0.9263,0.0737	-1529.22
0.9828,0.0172	-1508.75
0.9523,0.0477	-1523.93
0.9555,0.0445	-1505.67
0.9801,0.0199	-1500.69
0.9362,0.0638	-1529.21
0.9347,0.0653	-1521.20
0.9815,0.0185	-1504.63
0.9483,0.0517	-1515.09
0.9583,0.0417	-1530.51
0.9687,0.0313	-1504.75
0.9458,0.0542	-1509.48
0.9448,0.0552	-1515.25
0.9838,0.0162	-1521.20
0.9494,0.0506	-1509.18
0.9536,0.0464	-1511.89
0.9706,0.0294	-1511.66
0.9471,0.0529	-1509.37
0.9515,0.0485	-1520.92
0.9859,0.0141	-1500.72
0.9533,0.0467	-1514.92
0.9573,0.0427	-1521.07
0.9717,0.0283	-1508.17
0.9372,0.0628	-1523.81
0.9507,0.0493	-1526.83
0.9836,0.0164	-1496.57
0.9497,0.0503	-1529.73
0.9450,0.0550	-1523.77
0.9658,0.0342	-1524.95
0.9343,0.0657	-1529.19
0.9514,0.0486	-1512.00
0.9813,0.0187	-1508.58
0.9490,0.0510	-1520.91
0.9451,0.0549	-1520.93
0.9619,0.0381	-1524.54
0.9361,0.0639	-1515.78
0.9549,0.0451	-1527.10
0.9807,0.0193	-1516.39
0.9542,0.0458	-1520.97
0.9465,0.0535	-1532.41
0.9599,0.0401	-1511.66
0.9325,0.0675	-1523.93
0.9551,0.0449	-1520.99
0.9776,0.0224	-1504.54
0.9613,0.0387	-1508.41
0.9537,0.0463	-1517.94
0.9605,0.0395	-1514.84
0.9294,0.0706	-1526.61
0.9480,0.0520	-1523.81
0.9738,0.0262	-1508.19
0.9562,0.0438	-1508.70
0.9609,0.0391	-1505.23
0.9605,0.0395	-1518.03
0.9349,0.0651	-1513.21
0.9505,0.0495	-1515.01
0.9837,0.0163	-1500.66
0.9622,0.0378	-1511.61
0.9600,0.0400	-1508.48
0.9637,0.0363	-1501.75
0.9440,0.0560	-1515.29
0.9508,0.0492	-1517.96
0.9855,0.0145	-1496.49
0.9600,0.0400	-1508.48
0.9682,0.0318	-1518.44
0.9513,0.0487	-1517.95
0.9469,0.0531	-1515.15
0.9448,0.0552	-1535.13
0.9874,0.0126	-1505.17
0.9603,0.0397	-1508.46
0.9670,0.0330	-1498.08
0.9541,0.0459	-1517.94
0.9408,0.0592	-1526.54
0.9404,0.0596	-1521.02
0.9874,0.0126	-1505.16
0.9617,0.0383	-1498.72
0.9723,0.0277	-1511.73
0.9479,0.0521	-1520.91
0.9380,0.0620	-1510.22
0.9345,0.0655	-1515.90
0.9884,0.0116	-1505.32
0.9657,0.0343	-1504.91
0.9776,0.0224	-1504.54
0.9416,0.0584	-1515.42
0.9520,0.0480	-1517.94
0.9382,0.0618	-1534.68
0.9845,0.0155	-1496.53
0.9665,0.0335	-1521.67
0.9796,0.0204	-1508.44
0.9409,0.0591	-1523.77
0.9298,0.0702	-1521.43
0.9286,0.0714	-1518.93
0.9836,0.0164	-1512.95
0.9676,0.0324	-1514.99
0.9787,0.0213	-1504.55
0.9596,0.0404	-1521.17
0.9129,0.0871	-1531.96
0.9189,0.0811	-1522.10
0.9860,0.0140	-1504.98
0.9670,0.0330	-1518.35
0.9761,0.0239	-1519.39
0.9563,0.0437	-1511.77
0.9152,0.0848	-1536.65
0.9117,0.0883	-1529.66
0.9857,0.0143	-1504.94
0.9663,0.0337	-1518.30
0.9789,0.0211	-1516.07
0.9585,0.0415	-1517.98
0.9167,0.0833	-1539.05
0.9095,0.0905	-1538.99
0.9817,0.0183	-1508.63
0.9739,0.0261	-1504.57
0.9789,0.0211	-1516.07
0.9544,0.0456	-1508.81
0.9167,0.0833	-1519.87
0.8899,0.1101	-1541.47
0.9775,0.0225	-1500.77
0.9688,0.0312	-1508.18
0.9790,0.0210	-1504.56
0.9378,0.0622	-1523.81
0.9173,0.0827	-1524.62
0.8628,0.1372	-1542.75
0.9816,0.0184	-1508.61
0.9712,0.0288	-1511.68
0.9732,0.0268	-1522.54
0.9465,0.0535	-1520.91
0.9187,0.0813	-1526.97
0.8574,0.1426	-1561.06
0.9798,0.0202	-1508.46
0.9701,0.0299	-1501.21
0.9717,0.0283	-1518.78
0.9399,0.0601	-1521.03
0.9184,0.0816	-1529.40
0.8469,0.1531	-1559.33
0.9791,0.0209	-1508.41
0.9704,0.0296	-1504.68
0.9716,0.0284	-1515.23
0.9387,0.0613	-1518.33
0.9252,0.0748	-1516.66
0.8578,0.1422	-1555.67
0.9816,0.0184	-1508.62
0.9693,0.0307	-1511.63
0.9642,0.0358	-1511.59
0.9378,0.0622	-1526.52
0.9167,0.0833	-1536.65
0.8489,0.1511	-1542.05
0.9778,0.0222	-1500.76
0.9722,0.0278	-1529.50
0.9482,0.0518	-1526.72
0.9417,0.0583	-1532.11
0.9030,0.0970	-1539.04
0.8708,0.1292	-1538.45
0.9778,0.0222	-1504.54
0.9744,0.0256	-1500.92
0.9378,0.0622	-1521.09
0.9482,0.0518	-1515.09
0.9083,0.0917	-1529.82
0.8672,0.1328	-1548.10
0.9729,0.0271	-1508.18
0.9778,0.0222	-1523.48
0.9371,0.0629	-1518.41
0.9420,0.0580	-1523.77
0.8921,0.1079	-1539.30
0.8703,0.1297	-1557.52
0.9695,0.0305	-1511.63
0.9801,0.0199	-1500.69
0.9388,0.0612	-1515.60
0.9339,0.0661	-1521.24
0.9080,0.0920	-1520.69
0.8822,0.1178	-1535.69
0.9633,0.0367	-1511.60
0.9775,0.0225	-1508.31
0.9461,0.0539	-1520.92
0.9341,0.0659	-1515.93
0.9050,0.0950	-1534.51
0.8822,0.1178	-1539.72
0.9603,0.0397	-1521.21
0.9796,0.0204	-1504.57
0.9484,0.0516	-1526.73
0.9486,0.0514	-1526.74
0.8998,0.1002	-1534.70
0.8762,0.1238	-1540.03
0.9621,0.0379	-1508.38
0.9788,0.0212	-1500.72
0.9521,0.0479	-1514.95
0.9415,0.0585	-1518.21
0.8986,0.1014	-1552.21
0.8715,0.1285	-1540.32
0.9563,0.0437	-1508.69
0.9783,0.0217	-1508.36
0.9451,0.0549	-1509.54
0.9326,0.0674	-1523.92
0.8950,0.1050	-1541.36
0.8793,0.1207	-1545.82
0.9551,0.0449	-1517.94
0.9740,0.0260	-1508.19
0.9475,0.0525	-1512.23
0.9458,0.0542	-1520.92
0.9021,0.0979	-1527.95
0.8755,0.1245	-1538.12
0.9608,0.0392	-1508.44
0.9813,0.0187	-1500.67
0.9468,0.0532	-1515.15
0.9437,0.0563	-1518.13
0.8941,0.1059	-1537.11
0.8655,0.1345	-1550.02
0.9565,0.0435	-1505.59
0.9822,0.0178	-1508.68
0.9573,0.0427	-1521.07
0.9423,0.0577	-1523.77
0.9030,0.0970	-1530.11
0.8668,0.1332	-1544.37
0.9598,0.0402	-1518.01
0.9824,0.0176	-1512.72
0.9584,0.0416	-1517.98
0.9378,0.0622	-1518.38
0.8947,0.1053	-1528.52
0.8832,0.1168	-1535.62
0.9495,0.0505	-1523.84
0.9817,0.0183	-1508.63
0.9503,0.0497	-1526.82
0.9087,0.0913	-1529.81
0.8968,0.1032	-1537.00
0.8750,0.1250	-1545.94
0.9483,0.0517	-1515.09
0.9792,0.0208	-1508.42
0.9544,0.0456	-1511.85
0.9204,0.0796	-1531.79
0.8865,0.1135	-1539.52
0.8925,0.1075	-1545.64
0.9314,0.0686	-1529.18
0.9815,0.0185	-1504.63
0.9538,0.0462	-1508.85
0.9338,0.0662	-1513.30
0.8699,0.1301	-1548.02
0.8958,0.1042	-1534.89
0.9307,0.0693	-1526.58
0.9856,0.0144	-1500.71
0.9445,0.0555	-1509.59
0.9425,0.0575	-1526.56
0.8766,0.1234	-1545.89
0.8492,0.1508	-1547.20
0.9396,0.0604	-1518.29
0.9875,0.0125	-1509.55
0.9547,0.0453	-1517.94
0.9522,0.0478	-1508.97
0.8950,0.1050	-1537.07
0.8140,0.1860	-1561.94
0.9443,0.0557	-1532.26
0.9887,0.0113	-1496.43
0.9392,0.0608	-1526.52
0.9548,0.0452	-1524.04
0.8930,0.1070	-1537.15
0.8362,0.1638	-1554.66
0.9357,0.0643	-1510.45
0.9893,0.0107	-1496.44
0.9402,0.0598	-1521.02
0.9525,0.0475	-1523.94
0.9041,0.0959	-1534.54
0.8866,0.1134	-1547.74
0.9436,0.0564	-1518.13
0.9901,0.0099	-1496.46
0.9488,0.0512	-1503.39
0.9600,0.0400	-1514.83
0.9045,0.0955	-1523.29
0.9060,0.0940	-1525.41
0.9381,0.0619	-1515.65
0.9878,0.0122	-1496.44
0.9566,0.0434	-1524.13
0.9648,0.0352	-1511.59
0.8994,0.1006	-1556.63
0.9141,0.0859	-1539.02
0.9460,0.0540	-1512.33
0.9861,0.0139	-1500.73
0.9511,0.0489	-1503.12
0.9708,0.0292	-1518.68
0.9164,0.0836	-1522.29
0.9197,0.0803	-1524.49
0.9417,0.0583	-1523.77
0.9858,0.0142	-1513.45
0.9310,0.0690	-1531.78
0.9711,0.0289	-1508.16
0.9212,0.0788	-1524.40
0.9189,0.0811	-1524.53
0.9401,0.0599	-1523.78
0.9787,0.0213	-1496.90
0.9328,0.0672	-1531.81
0.9715,0.0285	-1511.70
0.9146,0.0854	-1527.17
0.9266,0.0734	-1521.60
0.9271,0.0729	-1529.20
0.9745,0.0255	-1500.92
0.9287,0.0713	-1521.49
0.9716,0.0284	-1504.63
0.9129,0.0871	-1531.96
0.9276,0.0724	-1524.10
0.9138,0.0862	-1531.93
0.9728,0.0272	-1515.33
0.9034,0.0966	-1530.09
0.9654,0.0346	-1504.93
0.9149,0.0851	-1536.65
0.9351,0.0649	-1531.86
0.9038,0.0962	-1536.79
0.9658,0.0342	-1514.93
0.9048,0.0952	-1527.76
0.9669,0.0331	-1511.59
0.9058,0.0942	-1529.96
0.9264,0.0736	-1524.15
0.8876,0.1124	-1549.80
0.9613,0.0387	-1518.05
0.9038,0.0962	-1543.51
0.9576,0.0424	-1502.37
0.9041,0.0959	-1561.46
0.9310,0.0690	-1526.57
0.8936,0.1064	-1543.51
0.9668,0.0332	-1511.59
0.9003,0.0997	-1539.09
0.9547,0.0453	-1517.94
0.8956,0.1044	-1532.75
0.9362,0.0638	-1518.46
0.9078,0.0922	-1541.28
0.9629,0.0371	-1518.11
0.9135,0.0865	-1539.01
0.9580,0.0420	-1524.22
0.8962,0.1038	-1534.87
0.9430,0.0570	-1526.57
0.9097,0.0903	-1527.45
0.9641,0.0359	-1511.59
0.9222,0.0778	-1524.35
0.9577,0.0423	-1511.72
0.8883,0.1117	-1543.59
0.9447,0.0553	-1515.26
0.9195,0.0805	-1541.55
0.9663,0.0337	-1501.52
0.9025,0.0975	-1543.50
0.9532,0.0468	-1529.99
0.8676,0.1324	-1542.45
0.9445,0.0555	-1512.43
0.9115,0.0885	-1536.67
0.9684,0.0316	-1525.30
0.9051,0.0949	-1548.04
0.9455,0.0545	-1512.36
0.8394,0.1606	-1554.50
0.9435,0.0565	-1532.21
0.9248,0.0752	-1536.77
0.9572,0.0428	-1511.74
0.8947,0.1053	-1528.52
0.9427,0.0573	-1529.37
0.8292,0.1708	-1551.87
0.9441,0.0559	-1515.29
0.9214,0.0786	-1519.47
0.9603,0.0397	-1521.21
0.8834,0.1166	-1543.71
0.9404,0.0596	-1509.99
0.8408,0.1592	-1549.45
0.9354,0.0646	-1521.18
0.9284,0.0716	-1526.63
0.9569,0.0431	-1508.65
0.8998,0.1002	-1536.90
0.9467,0.0533	-1520.91
0.8390,0.1610	-1551.22
0.9330,0.0670	-1518.64
0.9219,0.0781	-1529.30
0.9591,0.0409	-1502.21
0.9305,0.0695	-1513.61
0.9563,0.0437	-1527.20
0.8586,0.1414	-1543.03
0.9347,0.0653	-1518.55
0.9099,0.0901	-1538.99
0.9580,0.0420	-1514.84
0.9196,0.0804	-1534.24
0.9594,0.0406	-1514.83
0.8638,0.1362	-1546.38
0.9288,0.0712	-1521.48
0.9076,0.0924	-1532.15
0.9626,0.0374	-1511.60
0.9165,0.0835	-1539.05
0.9619,0.0381	-1524.53
0.8729,0.1271	-1553.72
0.9363,0.0637	-1513.08
0.8890,0.1110	-1535.26
0.9711,0.0289	-1508.16
0.9262,0.0738	-1536.80
0.9573,0.0427	-1505.51
0.8952,0.1048	-1539.21
0.9269,0.0731	-1536.83
0.9054,0.0946	-1520.95
0.9739,0.0261	-1508.19
0.9135,0.0865	-1527.22
0.9617,0.0383	-1514.84
0.8803,0.1197	-1539.81
0.9236,0.0764	-1524.28
0.9104,0.0896	-1529.72
0.9721,0.0279	-1508.17
0.9297,0.0703	-1529.18
0.9601,0.0399	-1514.83
0.8928,0.1072	-1532.92
0.9051,0.0949	-1545.78
0.9243,0.0757	-1514.23
0.9685,0.0315	-1508.19
0.9363,0.0637	-1523.83
0.9623,0.0377	-1518.09
0.9051,0.0949	-1525.49
0.9017,0.0983	-1514.68
0.9436,0.0564	-1515.32
0.9602,0.0398	-1511.65
0.9406,0.0594	-1512.73
0.9599,0.0401	-1511.66
0.9153,0.0847	-1531.89
0.8961,0.1039	-1547.80
0.9424,0.0576	-1523.77
0.9645,0.0355	-1508.29
0.9577,0.0423	-1511.72
0.9597,0.0403	-1524.35
0.9219,0.0781	-1521.89
0.9151,0.0849	-1524.76
0.9449,0.0551	-1506.72
0.9651,0.0349	-1501.62
0.9590,0.0410	-1514.84
0.9622,0.0378	-1514.85
0.9173,0.0827	-1531.84
0.9193,0.0807	-1531.81
0.9258,0.0742	-1536.79
0.9658,0.0342	-1501.56
0.9553,0.0447	-1508.75
0.9554,0.0446	-1514.88
0.9176,0.0824	-1517.38
0.9162,0.0838	-1536.65
0.9354,0.0646	-1515.83
0.9723,0.0277	-1511.73
0.9637,0.0363	-1514.87
0.9618,0.0382	-1518.07
0.8995,0.1005	-1534.72
0.9314,0.0686	-1518.74
0.9374,0.0626	-1518.40
0.9645,0.0355	-1511.59
0.9603,0.0397	-1511.65
0.9577,0.0423	-1508.61
0.8998,0.1002	-1532.51
0.9427,0.0573	-1518.16
0.9435,0.0565	-1529.40
0.9659,0.0341	-1511.59
0.9721,0.0279	-1511.72
0.9582,0.0418	-1505.44
0.9109,0.0891	-1534.35
0.9234,0.0766	-1529.27
0.9368,0.0632	-1515.73
0.9684,0.0316	-1504.76
0.9709,0.0291	-1511.67
0.9572,0.0428	-1521.06
0.9002,0.0998	-1547.89
0.9228,0.0772	-1534.24
0.9527,0.0473	-1508.93
0.9666,0.0334	-1504.86
0.9717,0.0283	-1504.63
0.9524,0.0476	-1511.95
0.8857,0.1143	-1549.79
0.9243,0.0757	-1519.24
0.9468,0.0532	-1526.67
0.9693,0.0307	-1508.17
0.9660,0.0340	-1514.93
0.9408,0.0592	-1532.07
0.8911,0.1089	-1545.64
0.9119,0.0881	-1531.99
0.9524,0.0476	-1526.93
0.9602,0.0398	-1537.12
0.9571,0.0429	-1514.85
0.9450,0.0550	-1520.93
0.9165,0.0835	-1541.44
0.9142,0.0858	-1529.55
0.9442,0.0558	-1515.28
0.9622,0.0378	-1514.85
0.9673,0.0327	-1514.98
0.9486,0.0514	-1506.33
0.8893,0.1107	-1551.91
0.9072,0.0928	-1532.16
0.9358,0.0642	-1529.20
0.9614,0.0386	-1508.41
0.9594,0.0406	-1508.51
0.9434,0.0566	-1523.77
0.8775,0.1225	-1543.90
0.9071,0.0929	-1534.44
0.9428,0.0572	-1506.96
0.9642,0.0358	-1508.29
0.9591,0.0409	-1517.99
0.9470,0.0530	-1509.38
0.8393,0.1607	-1559.47
0.8941,0.1059	-1537.11
0.9432,0.0568	-1515.33
0.9655,0.0345	-1521.58
0.9558,0.0442	-1524.09
0.9547,0.0453	-1508.79
0.8305,0.1695	-1547.02
0.8959,0.1041	-1541.34
0.9487,0.0513	-1535.49
0.9748,0.0252	-1504.55
0.9462,0.0538	-1518.05
0.9561,0.0439	-1533.35
0.8540,0.1460	-1550.43
0.9015,0.0985	-1543.49
0.9585,0.0415	-1524.26
0.9731,0.0269	-1515.35
0.9460,0.0540	-1520.92
0.9542,0.0458	-1505.79
0.8736,0.1264	-1542.12
0.9067,0.0933	-1536.73
0.9553,0.0447	-1521.00
0.9675,0.0325	-1508.20
0.9472,0.0528	-1515.13
0.9470,0.0530	-1520.91
0.8804,0.1196	-1537.81
0.9116,0.0884	-1539.00
0.9566,0.0434	-1530.32
0.9653,0.0347	-1514.91
0.9510,0.0490	-1523.88
0.9452,0.0548	-1523.77
0.8651,0.1349	-1550.04
0.9166,0.0834	-1524.67
0.9469,0.0531	-1518.03
0.9735,0.0265	-1500.97
0.9455,0.0545	-1515.22
0.9361,0.0639	-1521.15
0.9050,0.0950	-1534.51
0.9025,0.0975	-1536.82
0.9446,0.0554	-1535.11
0.9685,0.0315	-1504.76
0.9514,0.0486	-1509.02
0.9405,0.0595	-1509.98
0.9390,0.0610	-1518.32
0.8977,0.1023	-1536.97
0.9292,0.0708	-1534.33
0.9672,0.0328	-1514.98
0.9375,0.0625	-1518.39
0.9406,0.0594	-1504.44
0.9489,0.0511	-1520.91
0.9223,0.0777	-1524.34
0.9303,0.0697	-1529.18
0.9707,0.0293	-1515.17
0.9305,0.0695	-1526.58
0.9391,0.0609	-1529.26
0.9484,0.0516	-1529.64
0.8945,0.1055	-1547.78
0.9304,0.0696	-1518.81
0.9662,0.0338	-1498.17
0.9347,0.0653	-1513.22
0.9242,0.0758	-1526.75
0.9472,0.0528	-1520.91
0.9065,0.0935	-1536.73
0.9265,0.0735	-1531.75
0.9608,0.0392	-1508.44
0.9316,0.0684	-1521.34
0.9159,0.0841	-1524.71
0.9501,0.0499	-1509.13
0.8852,0.1148	-1535.49
0.9390,0.0610	-1518.32
0.9623,0.0377	-1514.85
0.9209,0.0791	-1529.33
0.9399,0.0601	-1523.78
0.9403,0.0597	-1518.26
0.8925,0.1075	-1535.06
0.9439,0.0561	-1523.77
0.9602,0.0398	-1511.65
0.9231,0.0769	-1529.27
0.9342,0.0658	-1523.88
0.9360,0.0640	-1513.11
0.8943,0.1057	-1549.91
0.9399,0.0601	-1534.78
0.9647,0.0353	-1511.59
0.9270,0.0730	-1519.04
0.9345,0.0655	-1529.19
0.9511,0.0489	-1514.99
0.8767,0.1233	-1534.12
0.9382,0.0618	-1523.80
0.9678,0.0322	-1504.79
0.9311,0.0689	-1523.97
0.9265,0.0735	-1519.08
0.9455,0.0545	-1523.78
0.8965,0.1035	-1539.17
0.9466,0.0534	-1529.54
0.9673,0.0327	-1504.82
0.9323,0.0677	-1534.42
0.9286,0.0714	-1526.62
0.9476,0.0524	-1520.91
0.8694,0.1306	-1551.82
0.9530,0.0470	-1520.95
0.9624,0.0376	-1505.12
0.9372,0.0628	-1518.41
0.9236,0.0764	-1524.28
0.9351,0.0649	-1515.85
0.8781,0.1219	-1541.90
0.9567,0.0433	-1505.57
0.9693,0.0307	-1511.63
0.9328,0.0672	-1529.18
0.9406,0.0594	-1518.25
0.9313,0.0687	-1529.18
0.8808,0.1192	-1533.78
0.9562,0.0438	-1524.11
0.9671,0.0329	-1504.83
0.9299,0.0701	-1524.01
0.9509,0.0491	-1526.85
0.9423,0.0577	-1518.18
0.8899,0.1101	-1522.67
0.9630,0.0370	-1518.12
0.9687,0.0313	-1511.62
0.9337,0.0663	-1521.25
0.9488,0.0512	-1529.67
0.9378,0.0622	-1507.53
0.9075,0.0925	-1532.15
0.9559,0.0441	-1511.79
0.9730,0.0270	-1504.59
0.9317,0.0683	-1513.50
0.9443,0.0557	-1515.28
0.9375,0.0625	-1540.06
0.9114,0.0886	-1532.00
0.9578,0.0422	-1508.60
0.9696,0.0304	-1508.17
0.9285,0.0715	-1521.50
0.9533,0.0467	-1523.97
0.9408,0.0592	-1526.54
0.9206,0.0794	-1531.79
0.9591,0.0409	-1508.52
0.9683,0.0317	-1504.77
0.9469,0.0531	-1520.91
0.9471,0.0529	-1526.68
0.9340,0.0660	-1539.78
0.9144,0.0856	-1522.44
0.9568,0.0432	-1511.76
0.9630,0.0370	-1521.37
0.9500,0.0500	-1512.08
0.9252,0.0748	-1519.17
0.9315,0.0685	-1526.57
0.9233,0.0767	-1526.78
0.9576,0.0424	-1508.61
0.9597,0.0403	-1514.83
0.9483,0.0517	-1518.00
0.9126,0.0874	-1534.31
0.9386,0.0614	-1521.07
0.9261,0.0739	-1519.11
0.9605,0.0395	-1511.64
0.9627,0.0373	-1511.60
0.9576,0.0424	-1508.61
0.9177,0.0823	-1531.84
0.9173,0.0827	-1534.25
0.9114,0.0886	-1539.00
0.9483,0.0517	-1520.91
0.9582,0.0418	-1517.97
0.9587,0.0413	-1508.54
0.9114,0.0886	-1522.68
0.9292,0.0708	-1526.61
0.9105,0.0895	-1532.04
0.9469,0.0531	-1518.03
0.9621,0.0379	-1518.08
0.9589,0.0411	-1508.53
0.9073,0.0927	-1534.44
0.9339,0.0661	-1531.83
0.9038,0.0962	-1530.07
0.9336,0.0664	-1529.18
0.9670,0.0330	-1521.72
0.9573,0.0427	-1517.96
0.9041,0.0959	-1532.30
0.9394,0.0606	-1532.01
0.8953,0.1047	-1534.91
0.9416,0.0584	-1534.89
0.9709,0.0291	-1518.69
0.9544,0.0456	-1508.81
0.8965,0.1035	-1534.85
0.9294,0.0706	-1539.49
0.9097,0.0903	-1534.37
0.9529,0.0471	-1517.94
0.9719,0.0281	-1504.62
0.9529,0.0471	-1514.93
0.8803,0.1197	-1541.80
0.9415,0.0585	-1520.99
0.9035,0.0965	-1532.32
0.9569,0.0431	-1508.65
0.9785,0.0215	-1504.55
0.9488,0.0512	-1517.99
0.8725,0.1275	-1528.72
0.9361,0.0639	-1523.84
0.9090,0.0910	-1538.99
0.9646,0.0354	-1528.12
0.9766,0.0234	-1515.73
0.9496,0.0504	-1529.72
0.8770,0.1230	-1538.02
0.9187,0.0813	-1519.69
0.9003,0.0997	-1541.29
0.9611,0.0389	-1518.04
0.9723,0.0277	-1504.61
0.9523,0.0477	-1514.95
0.9066,0.0934	-1523.09
0.9212,0.0788	-1521.94
0.8983,0.1017	-1543.48
0.9622,0.0378	-1511.61
0.9743,0.0257	-1508.20
0.9434,0.0566	-1535.02
0.9142,0.0858	-1524.82
0.9056,0.0944	-1527.71
0.9091,0.0909	-1536.69
0.9552,0.0448	-1502.64
0.9698,0.0302	-1518.58
0.9400,0.0600	-1526.53
0.9050,0.0950	-1523.24
0.9037,0.0963	-1541.27
0.9248,0.0752	-1521.71
0.9553,0.0447	-1502.62
0.9670,0.0330	-1508.21
0.9462,0.0538	-1518.05
0.9175,0.0825	-1524.61
0.8943,0.1057	-1541.37
0.9508,0.0492	-1520.92
0.9561,0.0439	-1508.70
0.9705,0.0295	-1518.65
0.9377,0.0623	-1529.23
0.9279,0.0721	-1529.20
0.9352,0.0648	-1526.52
0.9551,0.0449	-1527.11
0.9509,0.0491	-1520.92
0.9664,0.0336	-1518.31
0.9203,0.0797	-1522.01
0.9207,0.0793	-1531.78
0.9444,0.0556	-1535.10
0.9579,0.0421	-1511.72
0.9394,0.0606	-1518.30
0.9641,0.0359	-1521.46
0.9188,0.0812	-1534.24
0.9430,0.0570	-1512.54
0.9306,0.0694	-1526.58
0.9543,0.0457	-1520.97
0.9274,0.0726	-1524.11
0.9587,0.0413	-1524.27
0.9091,0.0909	-1532.09
0.9382,0.0618	-1515.64
0.9225,0.0775	-1521.86
0.9463,0.0537	-1520.92
0.9198,0.0802	-1522.04
0.9572,0.0428	-1514.85
0.9241,0.0759	-1524.25
0.9358,0.0642	-1518.48
0.9383,0.0617	-1515.63
0.9447,0.0553	-1526.61
0.9131,0.0869	-1527.25
0.9615,0.0385	-1527.71
0.9230,0.0770	-1519.34
0.9288,0.0712	-1518.91
0.9318,0.0682	-1521.33
0.9415,0.0585	-1532.10
0.9204,0.0796	-1524.44
0.9639,0.0361	-1514.88
0.9233,0.0767	-1531.76
0.9367,0.0633	-1518.43
0.9385,0.0615	-1537.42
0.9367,0.0633	-1513.05
0.9211,0.0789	-1534.24
0.9678,0.0322	-1521.81
0.9294,0.0706	-1526.61
0.9477,0.0523	-1518.01
0.9452,0.0548	-1515.23
0.9390,0.0610	-1518.32
0.9251,0.0749	-1524.21
0.9691,0.0309	-1515.07
0.9253,0.0747	-1536.78
0.9482,0.0518	-1509.28
0.9421,0.0579	-1520.98
0.9371,0.0629	-1521.11
0.9356,0.0644	-1534.55
0.9737,0.0263	-1500.96
0.9321,0.0679	-1523.94
0.9559,0.0441	-1508.72
0.9457,0.0543	-1523.78
0.9418,0.0582	-1518.20
0.9389,0.0611	-1529.25
0.9734,0.0266	-1508.18
0.9474,0.0526	-1529.58
0.9611,0.0389	-1502.01
0.9372,0.0628	-1513.00
0.9362,0.0638	-1515.78
0.9359,0.0641	-1531.88
0.9655,0.0345	-1511.59
0.9391,0.0609	-1518.32
0.9664,0.0336	-1511.59
0.9356,0.0644	-1518.49
0.9403,0.0597	-1526.53
0.9413,0.0587	-1523.77
0.9678,0.0322	-1508.20
0.9325,0.0675	-1531.80
0.9615,0.0385	-1501.97
0.9426,0.0574	-1515.37
0.9358,0.0642	-1515.80
0.9479,0.0521	-1523.81
0.9690,0.0310	-1504.74
0.9388,0.0612	-1518.33
0.9531,0.0469	-1511.91
0.9540,0.0460	-1533.10
0.9427,0.0573	-1526.56
0.9459,0.0541	-1523.78
0.9695,0.0305	-1504.72
0.9306,0.0694	-1518.79
0.9620,0.0380	-1524.54
0.9561,0.0439	-1524.11
0.9293,0.0707	-1518.88
0.9451,0.0549	-1523.77
0.9703,0.0297	-1508.17
0.9199,0.0801	-1531.80
0.9585,0.0415	-1521.12
0.9584,0.0416	-1527.39
0.9381,0.0619	-1523.80
0.9429,0.0571	-1515.35
0.9657,0.0343	-1521.60
0.9412,0.0588	-1521.00
0.9611,0.0389	-1508.43
0.9583,0.0417	-1514.84
0.9319,0.0681	-1526.56
0.9348,0.0652	-1518.54
0.9713,0.0287	-1508.17
0.9339,0.0661	-1523.89
0.9633,0.0367	-1505.06
0.9604,0.0396	-1508.46
0.9364,0.0636	-1523.83
0.9226,0.0774	-1524.33
0.9761,0.0239	-1497.13
0.9427,0.0573	-1520.96
0.9577,0.0423	-1517.96
0.9517,0.0483	-1523.91
0.9321,0.0679	-1531.80
0.9240,0.0760	-1516.77
0.9748,0.0252	-1508.21
0.9518,0.0482	-1523.91
0.9695,0.0305	-1511.63
0.9366,0.0634	-1523.82
0.9364,0.0636	-1523.83
0.9342,0.0658	-1539.80
0.9738,0.0262	-1519.03
0.9594,0.0406	-1524.32
0.9684,0.0316	-1508.19
0.9392,0.0608	-1512.83
0.9239,0.0761	-1519.27
0.9359,0.0641	-1515.79
0.9627,0.0373	-1508.35
0.9409,0.0591	-1518.23
0.9684,0.0316	-1511.61
0.9426,0.0574	-1520.97
0.9314,0.0686	-1529.18
0.9312,0.0688	-1536.99
0.9648,0.0352	-1511.59
0.9504,0.0496	-1517.96
0.9640,0.0360	-1514.88
0.9565,0.0435	-1514.86
0.9311,0.0689	-1531.78
0.9246,0.0754	-1524.23
0.9687,0.0313	-1511.62
0.9496,0.0504	-1520.91
0.9602,0.0398	-1514.83
0.9533,0.0467	-1511.91
0.9319,0.0681	-1534.41
0.9337,0.0663	-1531.83
0.9714,0.0286	-1501.12
0.9324,0.0676	-1518.68
0.9617,0.0383	-1508.40
0.9606,0.0394	-1505.25
0.9297,0.0703	-1521.44
0.9421,0.0579	-1515.39
0.9681,0.0319	-1508.19
0.9334,0.0666	-1526.54
0.9616,0.0384	-1514.84
0.9645,0.0355	-1511.59
0.9301,0.0699	-1529.18
0.9426,0.0574	-1520.97
0.9688,0.0312	-1511.62
0.9356,0.0644	-1534.55
0.9634,0.0366	-1514.87
0.9627,0.0373	-1527.86
0.9234,0.0766	-1536.73
0.9513,0.0487	-1514.98
0.9692,0.0308	-1501.27
0.9168,0.0832	-1522.25
0.9481,0.0519	-1515.10
0.9640,0.0360	-1508.30
0.9502,0.0498	-1515.02
0.9473,0.0527	-1515.13
0.9701,0.0299	-1508.17
0.9170,0.0830	-1524.64
0.9370,0.0630	-1531.92
0.9675,0.0325	-1508.20
0.9329,0.0671	-1521.28
0.9307,0.0693	-1529.18
0.9717,0.0283	-1511.70
0.9352,0.0648	-1526.52
0.9371,0.0629	-1534.62
0.9691,0.0309	-1508.18
0.9342,0.0658	-1513.26
0.9325,0.0675	-1518.67
0.9721,0.0279	-1508.17
0.9324,0.0676	-1526.55
0.9450,0.0550	-1515.24
0.9711,0.0289	-1515.20
0.9191,0.0809	-1526.95
0.9339,0.0661	-1513.29
0.9755,0.0245	-1504.55
0.9240,0.0760	-1524.26
0.9489,0.0511	-1529.68
0.9694,0.0306	-1511.63
0.9035,0.0965	-1523.37
0.9372,0.0628	-1523.82
0.9787,0.0213	-1508.38
0.9363,0.0637	-1526.52
0.9515,0.0485	-1520.92
0.9679,0.0321	-1504.79
0.8956,0.1044	-1534.90
0.9447,0.0553	-1526.61
0.9839,0.0161	-1508.89
0.9439,0.0561	-1520.94
0.9561,0.0439	-1517.94
0.9613,0.0387	-1511.63
0.9196,0.0804	-1526.93
0.9470,0.0530	-1520.91
0.9755,0.0245	-1519.29
0.9390,0.0610	-1512.85
0.9497,0.0503	-1517.97
0.9581,0.0419	-1508.58
0.9111,0.0889	-1525.03
0.9568,0.0432	-1517.95
0.9789,0.0211	-1512.24
0.9326,0.0674	-1508.15
0.9602,0.0398	-1511.65
0.9579,0.0421	-1514.84
0.9102,0.0898	-1532.05
0.9612,0.0388	-1518.05
0.9803,0.0197	-1512.41
0.9362,0.0638	-1531.89
0.9567,0.0433	-1502.47
0.9397,0.0603	-1507.30
0.9166,0.0834	-1522.27
0.9609,0.0391	-1511.64
0.9721,0.0279	-1508.17
0.9310,0.0690	-1513.56
0.9607,0.0393	-1518.03
0.9390,0.0610	-1523.79
0.9189,0.0811	-1536.67
0.9556,0.0444	-1508.73
0.9708,0.0292	-1501.16
0.9372,0.0628	-1537.33
0.9597,0.0403	-1505.33
0.9328,0.0672	-1521.29
0.9190,0.0810	-1531.81
0.9657,0.0343	-1518.26
0.9714,0.0286	-1501.11
0.9403,0.0597	-1526.53
0.9628,0.0372	-1521.36
0.9135,0.0865	-1524.87
0.9252,0.0748	-1526.72
0.9689,0.0311	-1515.06
0.9654,0.0346	-1511.59
0.9567,0.0433	-1508.66
0.9604,0.0396	-1502.08
0.9013,0.0987	-1539.07
0.9208,0.0792	-1539.14
0.9601,0.0399	-1508.47
0.9663,0.0337	-1514.94
0.9569,0.0431	-1521.05
0.9669,0.0331	-1501.46
0.9064,0.0936	-1536.73
0.9190,0.0810	-1529.38
0.9647,0.0353	-1504.97
0.9562,0.0438	-1521.03
0.9600,0.0400	-1508.48
0.9655,0.0345	-1514.92
0.8980,0.1020	-1541.31
0.9069,0.0931	-1541.28
0.9574,0.0426	-1508.62
0.9413,0.0587	-1518.22
0.9579,0.0421	-1521.09
0.9693,0.0307	-1515.08
0.9024,0.0976	-1523.48
0.9079,0.0921	-1532.13
0.9571,0.0429	-1517.95
0.9452,0.0548	-1512.39
0.9673,0.0327	-1504.82
0.9703,0.0297	-1515.14
0.9088,0.0912	-1525.20
0.9085,0.0915	-1536.70
0.9667,0.0333	-1511.59
0.9432,0.0568	-1532.19
0.9660,0.0340	-1508.24
0.9673,0.0327	-1508.21
0.9142,0.0858	-1529.55
0.9264,0.0736	-1529.21
0.9708,0.0292	-1504.66
0.9384,0.0616	-1521.07
0.9633,0.0367	-1508.33
0.9629,0.0371	-1511.60
0.8967,0.1033	-1530.52
0.9387,0.0613	-1518.34
0.9732,0.0268	-1508.18
0.9492,0.0508	-1515.05
0.9587,0.0413	-1511.69
0.9684,0.0316	-1521.87
0.9165,0.0835	-1529.46
0.9524,0.0476	-1529.92
0.9769,0.0231	-1504.54
0.9611,0.0389	-1518.05
0.9593,0.0407	-1517.99
0.9594,0.0406	-1514.83
0.9212,0.0788	-1531.78
0.9594,0.0406	-1524.32
0.9756,0.0244	-1508.24
0.9575,0.0425	-1527.30
0.9694,0.0306	-1497.80
0.9623,0.0377	-1511.61
0.9138,0.0862	-1524.85
0.9602,0.0398	-1511.65
0.9733,0.0267	-1500.99
0.9517,0.0483	-1526.89
0.9716,0.0284	-1518.77
0.9672,0.0328	-1514.98
0.9143,0.0857	-1527.18
0.9605,0.0395	-1508.45
0.9730,0.0270	-1511.76
0.9562,0.0438	-1508.69
0.9722,0.0278	-1504.61
0.9686,0.0314	-1501.32
0.9166,0.0834	-1531.86
0.9683,0.0317	-1518.45
0.9737,0.0263	-1511.80
0.9587,0.0413	-1508.55
0.9754,0.0246	-1515.58
0.9719,0.0281	-1518.80
0.9078,0.0922	-1534.42
0.9755,0.0245	-1508.23
0.9713,0.0287	-1518.73
0.9661,0.0339	-1511.59
0.9821,0.0179	-1516.67
0.9611,0.0389	-1498.80
0.9096,0.0904	-1541.30
0.9772,0.0228	-1500.78
0.9736,0.0264	-1504.58
0.9693,0.0307	-1501.27
0.9845,0.0155	-1500.68
0.9626,0.0374	-1505.11
0.9159,0.0841	-1531.87
0.9742,0.0258	-1526.36
0.9765,0.0235	-1500.82
0.9730,0.0270	-1511.76
0.9814,0.0186	-1500.67
0.9594,0.0406	-1524.32
0.9087,0.0913	-1541.29
0.9685,0.0315	-1518.46
0.9772,0.0228	-1512.06
0.9734,0.0266	-1515.38
0.9734,0.0266	-1511.78
0.9505,0.0495	-1506.14
0.9145,0.0855	-1531.91
0.9702,0.0298	-1501.20
0.9783,0.0217	-1508.36
0.9739,0.0261	-1511.81
0.9730,0.0270	-1504.59
0.9540,0.0460	-1520.97
0.9202,0.0798	-1524.45
0.9696,0.0304	-1504.71
0.9735,0.0265	-1511.79
0.9772,0.0228	-1497.02
0.9699,0.0301	-1504.70
0.9575,0.0425	-1517.96
0.9048,0.0952	-1543.52
0.9665,0.0335	-1511.59
0.9752,0.0248	-1530.26
0.9728,0.0272	-1511.75
0.9735,0.0265	-1500.98
0.9492,0.0508	-1515.05
0.9083,0.0917	-1545.87
0.9590,0.0410	-1511.68
0.9748,0.0252	-1504.56
0.9705,0.0295	-1504.67
0.9717,0.0283	-1501.09
0.9463,0.0537	-1532.39
0.9375,0.0625	-1518.39
0.9599,0.0401	-1527.53
0.9734,0.0266	-1511.78
0.9641,0.0359	-1508.30
0.9698,0.0302	-1515.11
0.9417,0.0583	-1526.55
0.9476,0.0524	-1518.01
0.9594,0.0406	-1521.16
0.9757,0.0243	-1504.54
0.9740,0.0260	-1508.19
0.9733,0.0267	-1515.37
0.9523,0.0477	-1517.94
0.9422,0.0578	-1518.18
0.9441,0.0559	-1526.60
0.9724,0.0276	-1504.61
0.9755,0.0245	-1508.23
0.9753,0.0247	-1508.23
0.9551,0.0449	-1517.94
0.9250,0.0750	-1526.72
0.9501,0.0499	-1515.02
0.9633,0.0367	-1505.06
0.9769,0.0231	-1500.80
0.9765,0.0235	-1519.45
0.9611,0.0389	-1518.05
0.9114,0.0886	-1543.66
0.9423,0.0577	-1515.38
0.9660,0.0340	-1508.24
0.9714,0.0286	-1501.11
0.9768,0.0232	-1508.28
0.9640,0.0360	-1514.88
0.8981,0.1019	-1532.61
0.9492,0.0508	-1529.69
0.9681,0.0319	-1508.19
0.9712,0.0288	-1508.16
0.9789,0.0211	-1508.40
0.9701,0.0299	-1508.17
0.8897,0.1103	-1545.65
0.9517,0.0483	-1514.97
0.9570,0.0430	-1505.55
0.9628,0.0372	-1521.36
0.9765,0.0235	-1515.73
0.9731,0.0269	-1501.00
0.8944,0.1056	-1530.68
0.9536,0.0464	-1514.91
0.9629,0.0371	-1508.35
0.9616,0.0384	-1511.62
0.9790,0.0210	-1496.87
0.9710,0.0290	-1508.17
0.8989,0.1011	-1536.93
0.9593,0.0407	-1527.47
0.9518,0.0482	-1514.96
0.9662,0.0338	-1518.29
0.9781,0.0219	-1508.35
0.9667,0.0333	-1514.96
0.8955,0.1045	-1545.64
0.9575,0.0425	-1517.96
0.9568,0.0432	-1511.76
0.9714,0.0286	-1497.59
0.9756,0.0244	-1500.86
0.9461,0.0539	-1515.19
0.9000,0.1000	-1545.68
0.9540,0.0460	-1514.90
0.9525,0.0475	-1514.94
0.9765,0.0235	-1497.09
0.9660,0.0340	-1521.63
0.9418,0.0582	-1520.98
0.8913,0.1087	-1524.60
0.9594,0.0406	-1514.83
0.9650,0.0350	-1504.95
0.9796,0.0204	-1520.05
0.9637,0.0363	-1518.15
0.9398,0.0602	-1521.03
0.8808,0.1192	-1547.78
0.9582,0.0418	-1514.84
0.9552,0.0448	-1502.64
0.9823,0.0177	-1500.66
0.9723,0.0277	-1511.73
0.9296,0.0704	-1534.34
0.8823,0.1177	-1541.72
0.9604,0.0396	-1511.65
0.9525,0.0475	-1514.94
0.9760,0.0240	-1504.54
0.9751,0.0249	-1511.89
0.9197,0.0803	-1536.68
0.8760,0.1240	-1528.32
0.9685,0.0315	-1515.04
0.9528,0.0472	-1520.94
0.9833,0.0167	-1504.74
0.9790,0.0210	-1500.72
0.9239,0.0761	-1519.27
0.8678,0.1322	-1553.73
0.9619,0.0381	-1505.16
0.9579,0.0421	-1524.21
0.9835,0.0165	-1496.57
0.9791,0.0209	-1508.41
0.9196,0.0804	-1536.67
0.8858,0.1142	-1551.84
0.9667,0.0333	-1514.96
0.9618,0.0382	-1501.94
0.9843,0.0157	-1521.35
0.9735,0.0265	-1511.79
0.9206,0.0794	-1534.24
0.9082,0.0918	-1527.54
0.9594,0.0406	-1508.51
0.9645,0.0355	-1511.59
0.9829,0.0171	-1496.61
0.9728,0.0272	-1504.60
0.9165,0.0835	-1541.44
0.9198,0.0802	-1522.04
0.9650,0.0350	-1518.22
0.9547,0.0453	-1502.70
0.9863,0.0137	-1500.74
0.9712,0.0288	-1522.24
0.9314,0.0686	-1516.13
0.9274,0.0726	-1516.46
0.9578,0.0422	-1527.33
0.9511,0.0489	-1514.98
0.9869,0.0131	-1505.10
0.9718,0.0282	-1504.63
0.9241,0.0759	-1524.25
0.9327,0.0673	-1523.92
0.9553,0.0447	-1517.94
0.9547,0.0453	-1511.84
0.9867,0.0133	-1505.07
0.9683,0.0317	-1508.19
0.9027,0.0973	-1532.36
0.9362,0.0638	-1515.78
0.9500,0.0500	-1523.86
0.9412,0.0588	-1523.77
0.9842,0.0158	-1500.67
0.9699,0.0301	-1522.06
0.9171,0.0829	-1531.85
0.9392,0.0608	-1521.05
0.9514,0.0486	-1517.95
0.9318,0.0682	-1526.56
0.9870,0.0130	-1496.45
0.9734,0.0266	-1515.38
0.9329,0.0671	-1521.28
0.9450,0.0550	-1518.08
0.9510,0.0490	-1517.95
0.9353,0.0647	-1523.85
0.9886,0.0114	-1505.35
0.9676,0.0324	-1515.00
0.9188,0.0812	-1534.24
0.9458,0.0542	-1518.06
0.9623,0.0377	-1511.61
0.9266,0.0734	-1524.14
0.9876,0.0124	-1500.81
0.9681,0.0319	-1515.02
0.9192,0.0808	-1534.24
0.9448,0.0552	-1518.09
0.9651,0.0349	-1531.50
0.9318,0.0682	-1523.95
0.9859,0.0141	-1496.47
0.9711,0.0289	-1518.71
0.9286,0.0714	-1526.62
0.9437,0.0563	-1520.95
0.9725,0.0275	-1504.61
0.9345,0.0655	-1523.87
0.9865,0.0135	-1496.46
0.9781,0.0219	-1500.75
0.9310,0.0690	-1539.58
0.9519,0.0481	-1514.96
0.9710,0.0290	-1508.17
0.9410,0.0590	-1521.00
0.9871,0.0129	-1500.78
0.9774,0.0226	-1519.61
0.9178,0.0822	-1524.60
0.9510,0.0490	-1514.99
0.9690,0.0310	-1511.62
0.9388,0.0612	-1526.52
0.9865,0.0135	-1513.62
0.9735,0.0265	-1511.79
0.9026,0.0974	-1530.14
0.9501,0.0499	-1523.86
0.9618,0.0382	-1521.30
0.9250,0.0750	-1526.72
0.9870,0.0130	-1505.10
0.9696,0.0304	-1497.79
0.9135,0.0865	-1536.65
0.9310,0.0690	-1526.57
0.9642,0.0358	-1511.59
0.9364,0.0636	-1537.28
0.9873,0.0127	-1505.15
0.9660,0.0340	-1518.28
0.9075,0.0925	-1525.30
0.9353,0.0647	-1531.87
0.9548,0.0452	-1511.84
0.9360,0.0640	-1521.15
0.9861,0.0139	-1500.73
0.9700,0.0300	-1515.12
0.9009,0.0991	-1525.83
0.9312,0.0688	-1516.15
0.9360,0.0640	-1518.47
0.9364,0.0636	-1521.14
0.9863,0.0137	-1505.02
0.9699,0.0301	-1504.70
0.8920,0.1080	-1530.86
0.9382,0.0618	-1526.52
0.9272,0.0728	-1506.30
0.9433,0.0567	-1518.14
0.9862,0.0138	-1509.28
0.9634,0.0366	-1511.60
0.8821,0.1179	-1535.70
0.9395,0.0605	-1540.24
0.9329,0.0671	-1539.71
0.9583,0.0417	-1533.64
0.9870,0.0130	-1496.45
0.9616,0.0384	-1521.28
0.8973,0.1027	-1530.48
0.9355,0.0645	-1513.15
0.9282,0.0718	-1524.07
0.9601,0.0399	-1514.83
0.9844,0.0156	-1504.82
0.9651,0.0349	-1511.59
0.9114,0.0886	-1539.00
0.9432,0.0568	-1512.52
0.9299,0.0701	-1526.59
0.9670,0.0330	-1528.48
0.9815,0.0185	-1504.63
0.9666,0.0334	-1508.22
0.9204,0.0796	-1541.58
0.9535,0.0465	-1508.87
0.9250,0.0750	-1516.67
0.9689,0.0311	-1504.74
0.9822,0.0178	-1504.67
0.9684,0.0316	-1504.77
0.9103,0.0897	-1552.89
0.9567,0.0433	-1521.04
0.9258,0.0742	-1529.22
0.9784,0.0216	-1504.55
0.9764,0.0236	-1504.54
0.9653,0.0347	-1508.26
0.9222,0.0778	-1534.24
0.9529,0.0471	-1508.91
0.9247,0.0753	-1524.23
0.9630,0.0370	-1524.64
0.9784,0.0216	-1512.17
0.9613,0.0387	-1508.41
0.9454,0.0546	-1523.78
0.9602,0.0398	-1514.83
0.9125,0.0875	-1536.66
0.9601,0.0399	-1527.55
0.9763,0.0237	-1504.54
0.9709,0.0291	-1511.67
0.9343,0.0657	-1515.91
0.9613,0.0387	-1530.90
0.9115,0.0885	-1527.34
0.9585,0.0415	-1527.39
0.9781,0.0219	-1512.14
0.9685,0.0315	-1504.76
0.9486,0.0514	-1523.82
0.9554,0.0446	-1517.94
0.9224,0.0776	-1531.76
0.9620,0.0380	-1521.31
0.9836,0.0164	-1508.85
0.9689,0.0311	-1501.30
0.9474,0.0526	-1509.35
0.9584,0.0416	-1511.70
0.9288,0.0712	-1526.62
0.9571,0.0429	-1524.16
0.9843,0.0157	-1508.96
0.9670,0.0330	-1498.08
0.9518,0.0482	-1514.96
0.9545,0.0455	-1524.02
0.9359,0.0641	-1513.11
0.9620,0.0380	-1518.08
0.9865,0.0135	-1513.62
0.9666,0.0334	-1501.49
0.9448,0.0552	-1518.09
0.9638,0.0362	-1501.75
0.9248,0.0752	-1526.73
0.9602,0.0398	-1505.29
0.9840,0.0160	-1500.67
0.9763,0.0237	-1504.54
0.9341,0.0659	-1537.14
0.9677,0.0323	-1504.80
0.9174,0.0826	-1524.62
0.9635,0.0365	-1514.87
0.9830,0.0170	-1504.72
0.9739,0.0261	-1500.95
0.9260,0.0740	-1534.27
0.9720,0.0280	-1504.62
0.9135,0.0865	-1515.44
0.9704,0.0296	-1508.17
0.9796,0.0204	-1504.57
0.9775,0.0225	-1500.77
0.9249,0.0751	-1534.26
0.9708,0.0292	-1511.67
0.9305,0.0695	-1531.77
0.9612,0.0388	-1518.05
0.9786,0.0214	-1504.55
0.9754,0.0246	-1519.27
0.9251,0.0749	-1526.72
0.9733,0.0267	-1511.78
0.9277,0.0723	-1521.54
0.9597,0.0403	-1511.66
0.9761,0.0239	-1508.25
0.9767,0.0233	-1515.75
0.9256,0.0744	-1519.14
0.9762,0.0238	-1511.97
0.9334,0.0666	-1521.26
0.9714,0.0286	-1518.74
0.9780,0.0220	-1500.75
0.9709,0.0291	-1504.66
0.9340,0.0660	-1531.83
0.9744,0.0256	-1537.31
0.9377,0.0623	-1518.38
0.9788,0.0212	-1504.56
0.9820,0.0180	-1500.66
0.9727,0.0273	-1515.32
0.9489,0.0511	-1526.75
0.9700,0.0300	-1508.17
0.9253,0.0747	-1519.16
0.9769,0.0231	-1508.28
0.9802,0.0198	-1496.78
0.9729,0.0271	-1497.43
0.9548,0.0452	-1508.78
0.9709,0.0291	-1501.15
0.9260,0.0740	-1521.64
0.9733,0.0267	-1515.37
0.9829,0.0171	-1504.71
0.9736,0.0264	-1497.36
0.9539,0.0461	-1508.84
0.9677,0.0323	-1521.80
0.9261,0.0739	-1521.63
0.9727,0.0273	-1515.32
0.9843,0.0157	-1500.67
0.9795,0.0205	-1504.57
0.9647,0.0353	-1508.28
0.9671,0.0329	-1521.74
0.9273,0.0727	-1519.02
0.9695,0.0305	-1511.63
0.9837,0.0163	-1500.66
0.9758,0.0242	-1500.85
0.9626,0.0374	-1501.86
0.9686,0.0314	-1501.33
0.9359,0.0641	-1534.56
0.9692,0.0308	-1511.63
0.9781,0.0219	-1496.95
0.9761,0.0239	-1515.67
0.9655,0.0345	-1511.59
0.9695,0.0305	-1504.71
0.9396,0.0604	-1529.27
0.9697,0.0303	-1504.71
0.9729,0.0271	-1508.18
0.9639,0.0361	-1518.16
0.9660,0.0340	-1514.93
0.9662,0.0338	-1508.23
0.9279,0.0721	-1524.09
0.9666,0.0334	-1504.86
0.9666,0.0334	-1508.22
0.9619,0.0381	-1518.07
0.9727,0.0273	-1508.17
0.9597,0.0403	-1511.66
0.9277,0.0723	-1531.75
0.9698,0.0302	-1501.23
0.9676,0.0324	-1514.99
0.9660,0.0340	-1514.93
0.9726,0.0274	-1501.03
0.9653,0.0347	-1508.26
0.9173,0.0827	-1529.44
0.9676,0.0324	-1511.60
0.9718,0.0282	-1508.17
0.9651,0.0349	-1501.62
0.9739,0.0261	-1515.43
0.9688,0.0312	-1501.31
0.9273,0.0727	-1534.29
0.9634,0.0366	-1514.87
0.9678,0.0322	-1511.60
0.9612,0.0388	-1502.00
0.9724,0.0276	-1515.30
0.9670,0.0330	-1504.84
0.9137,0.0863	-1529.58
0.9685,0.0315	-1508.19
0.9580,0.0420	-1530.48
0.9503,0.0497	-1509.11
0.9787,0.0213	-1508.38
0.9631,0.0369	-1508.34
0.8940,0.1060	-1537.11
0.9696,0.0304	-1511.63
0.9520,0.0480	-1523.92
0.9429,0.0571	-1506.94
0.9784,0.0216	-1500.74
0.9627,0.0373	-1501.85
0.9143,0.0857	-1531.92
0.9746,0.0254	-1515.50
0.9566,0.0434	-1524.13
0.9352,0.0648	-1523.85
0.9818,0.0182	-1516.62
0.9624,0.0376	-1514.85
0.9134,0.0866	-1524.87
0.9723,0.0277	-1515.28
0.9601,0.0399	-1521.20
0.9450,0.0550	-1526.62
0.9778,0.0222	-1512.11
0.9657,0.0343	-1508.25
0.9062,0.0938	-1527.66
0.9752,0.0248	-1511.89
0.9635,0.0365	-1505.05
0.9485,0.0515	-1512.17
0.9762,0.0238	-1515.68
0.9696,0.0304	-1508.17
0.9311,0.0689	-1529.18
0.9737,0.0263	-1511.80
0.9721,0.0279	-1497.52
0.9460,0.0540	-1520.92
0.9778,0.0222	-1496.97
0.9642,0.0358	-1514.88
0.9205,0.0795	-1529.34
0.9727,0.0273	-1504.60
0.9717,0.0283	-1508.17
0.9359,0.0641	-1510.43
0.9750,0.0250	-1508.21
0.9520,0.0480	-1520.93
0.9008,0.0992	-1536.87
0.9746,0.0254	-1508.20
0.9717,0.0283	-1508.17
0.9380,0.0620	-1523.80
0.9731,0.0269	-1508.18
0.9543,0.0457	-1524.01
0.8877,0.1123	-1539.47
0.9735,0.0265	-1511.79
0.9699,0.0301	-1501.22
0.9304,0.0696	-1521.40
0.9732,0.0268	-1504.59
0.9553,0.0447	-1502.63
0.8807,0.1193	-1545.79
0.9764,0.0236	-1515.71
0.9685,0.0315	-1508.19
0.9296,0.0704	-1531.76
0.9763,0.0237	-1511.98
0.9481,0.0519	-1518.00
0.9173,0.0827	-1529.44
0.9727,0.0273	-1504.60
0.9689,0.0311	-1508.18
0.9146,0.0854	-1527.17
0.9686,0.0314	-1501.33
0.9465,0.0535	-1512.30
0.9213,0.0787	-1524.40
0.9703,0.0297	-1518.63
0.9660,0.0340	-1511.59
0.9138,0.0862	-1531.93
0.9696,0.0304	-1518.56
0.9377,0.0623	-1534.65
0.9164,0.0836	-1531.86
0.9734,0.0266	-1504.58
0.9714,0.0286	-1504.64
0.9119,0.0881	-1529.65
0.9720,0.0280	-1508.17
0.9382,0.0618	-1521.08
0.9159,0.0841	-1522.32
0.9683,0.0317	-1521.86
0.9716,0.0284	-1522.30
0.9196,0.0804	-1529.36
0.9728,0.0272	-1501.02
0.9431,0.0569	-1526.57
0.9006,0.0994	-1525.86
0.9612,0.0388	-1511.63
0.9722,0.0278	-1508.17
0.9120,0.0880	-1548.35
0.9747,0.0253	-1504.56
0.9445,0.0555	-1543.61
0.8929,0.1071	-1537.16
0.9689,0.0311	-1504.74
0.9764,0.0236	-1504.54
0.9072,0.0928	-1523.04
0.9667,0.0333	-1514.96
0.9356,0.0644	-1521.17
0.8847,0.1153	-1541.63
0.9645,0.0355	-1518.19
0.9712,0.0288	-1508.16
0.9026,0.0974	-1527.92
0.9526,0.0474	-1508.94
0.9352,0.0648	-1531.86
0.8912,0.1088	-1539.33
0.9620,0.0380	-1505.15
0.9700,0.0300	-1508.17
0.8939,0.1061	-1530.72
0.9594,0.0406	-1511.67
0.9411,0.0589	-1515.46
0.9069,0.0931	-1527.62
0.9643,0.0357	-1521.47
0.9732,0.0268	-1508.18
0.9124,0.0876	-1531.97
0.9647,0.0353	-1514.90
0.9239,0.0761	-1524.26
0.8985,0.1015	-1534.76
0.9670,0.0330	-1511.59
0.9743,0.0257	-1504.56
0.9314,0.0686	-1529.18
0.9616,0.0384	-1514.84
0.9347,0.0653	-1529.19
0.8951,0.1049	-1541.35
0.9630,0.0370	-1505.08
0.9736,0.0264	-1526.23
0.9386,0.0614	-1521.07
0.9478,0.0522	-1506.42
0.9399,0.0601	-1507.28
0.8926,0.1074	-1541.40
0.9622,0.0378	-1511.61
0.9763,0.0237	-1508.26
0.9381,0.0619	-1526.52
0.9573,0.0427	-1524.18
0.9428,0.0572	-1534.98
0.8957,0.1043	-1539.19
0.9650,0.0350	-1511.59
0.9739,0.0261	-1504.57
0.9356,0.0644	-1526.52
0.9439,0.0561	-1526.59
0.9434,0.0566	-1523.77
0.8830,0.1170	-1535.63
0.9594,0.0406	-1514.83
0.9728,0.0272	-1508.17
0.9282,0.0718	-1539.43
0.9483,0.0517	-1515.09
0.9514,0.0486	-1523.90
0.9088,0.0912	-1534.40
0.9612,0.0388	-1508.42
0.9705,0.0295	-1522.14
0.9346,0.0654	-1526.53
0.9583,0.0417	-1524.24
0.9413,0.0587	-1529.32
0.9049,0.0951	-1532.26
0.9568,0.0432	-1517.95
0.9723,0.0277	-1508.17
0.9432,0.0568	-1523.76
0.9615,0.0385	-1511.62
0.9375,0.0625	-1518.39
0.8924,0.1076	-1530.83
0.9528,0.0472	-1526.95
0.9753,0.0247	-1511.90
0.9521,0.0479	-1514.95
0.9653,0.0347	-1508.26
0.9402,0.0598	-1512.76
0.9093,0.0907	-1534.38
0.9438,0.0562	-1520.94
0.9782,0.0218	-1519.76
0.9471,0.0529	-1512.26
0.9581,0.0419	-1511.71
0.9433,0.0567	-1526.58
0.9059,0.0941	-1523.16
0.9342,0.0658	-1521.22
0.9766,0.0234	-1504.54
0.9516,0.0484	-1520.93
0.9506,0.0494	-1520.92
0.9458,0.0542	-1523.78
0.8933,0.1067	-1545.64
0.9355,0.0645	-1521.17
0.9787,0.0213	-1508.38
0.9531,0.0469	-1502.88
0.9583,0.0417	-1527.38
0.9310,0.0690	-1521.37
0.8896,0.1104	-1528.96
0.9421,0.0579	-1515.40
0.9808,0.0192	-1500.67
0.9490,0.0510	-1520.91
0.9623,0.0377	-1508.37
0.9361,0.0639	-1518.47
0.8752,0.1248	-1542.04
0.9350,0.0650	-1529.19
0.9802,0.0198	-1508.49
0.9553,0.0447	-1517.94
0.9545,0.0455	-1514.89
0.9261,0.0739	-1526.69
0.8415,0.1585	-1549.40
0.9492,0.0508	-1529.69
0.9733,0.0267	-1500.99
0.9613,0.0387	-1527.69
0.9441,0.0559	-1515.29
0.9211,0.0789	-1534.24
0.8486,0.1514	-1547.24
0.9564,0.0436	-1502.51
0.9764,0.0236	-1515.71
0.9668,0.0332	-1504.85
0.9576,0.0424	-1508.61
0.9204,0.0796	-1526.89
0.8681,0.1319	-1557.49
0.9527,0.0473	-1520.94
0.9794,0.0206	-1504.57
0.9613,0.0387	-1511.63
0.9619,0.0381	-1508.39
0.9266,0.0734	-1536.82
0.8725,0.1275	-1532.56
0.9431,0.0569	-1512.53
0.9803,0.0197	-1520.21
0.9574,0.0426	-1524.19
0.9669,0.0331	-1525.09
0.9312,0.0688	-1529.18
0.8799,0.1201	-1535.85
0.9415,0.0585	-1523.77
0.9798,0.0202	-1504.58
0.9502,0.0498	-1512.07
0.9709,0.0291	-1518.69
0.9395,0.0605	-1512.81
0.8951,0.1049	-1532.78
0.9555,0.0445	-1514.87
0.9758,0.0242	-1519.33
0.9414,0.0586	-1512.66
0.9728,0.0272	-1511.75
0.9435,0.0565	-1515.32
0.8730,0.1270	-1534.44
0.9469,0.0531	-1515.15
0.9806,0.0194	-1500.68
0.9405,0.0595	-1534.81
0.9724,0.0276	-1515.29
0.9314,0.0686	-1526.57
0.8681,0.1319	-1546.19
0.9353,0.0647	-1529.20
0.9836,0.0164	-1504.76
0.9335,0.0665	-1526.54
0.9738,0.0262	-1511.80
0.9292,0.0708	-1513.74
0.8658,0.1342	-1546.29
0.9398,0.0602	-1515.54
0.9816,0.0184	-1496.68
0.9379,0.0621	-1515.66
0.9752,0.0248	-1515.56
0.9188,0.0812	-1534.24
0.8934,0.1066	-1535.01
0.9313,0.0687	-1521.36
0.9800,0.0200	-1512.36
0.9409,0.0591	-1529.31
0.9693,0.0307	-1508.18
0.9250,0.0750	-1526.73
0.8789,0.1211	-1543.85
0.9285,0.0715	-1521.50
0.9717,0.0283	-1504.63
0.9392,0.0608	-1515.58
0.9778,0.0222	-1515.89
0.9333,0.0667	-1518.63
0.8594,0.1406	-1553.84
0.9229,0.0771	-1529.28
0.9720,0.0280	-1518.80
0.9394,0.0606	-1537.49
0.9824,0.0176	-1508.70
0.9363,0.0637	-1526.52
0.8692,0.1308	-1538.57
0.9325,0.0675	-1531.80
0.9719,0.0281	-1508.17
0.9212,0.0788	-1529.32
0.9756,0.0244	-1511.93
0.9498,0.0502	-1517.97
0.8803,0.1197	-1547.79
0.9231,0.0769	-1526.79
0.9750,0.0250	-1504.55
0.9299,0.0701	-1518.84
0.9753,0.0247	-1508.22
0.9377,0.0623	-1521.10
0.8864,0.1136	-1551.85
