#isoforms=['ENSG00000101294.SE.1.A.up_ENSG00000101294.SE.1.A.SE1_ENSG00000101294.SE.1.A.dn','ENSG00000101294.SE.1.B.up_ENSG00000101294.SE.1.B.dn']	exon_lens=('ENSG00000101294.SE.1.A.up',99),('ENSG00000101294.SE.1.A.SE1',376),('ENSG00000101294.SE.1.A.dn',89),('ENSG00000101294.SE.1.B.up',99),('ENSG00000101294.SE.1.B.dn',89)	iters=5000	burn_in=500	lag=10	percent_accept=85.05	proposal_type=drift	counts=(0,0):418,(1,0):167,(1,1):222	assigned_counts=0:231,1:158	chrom=chr20	strand=+	mRNA_starts=31527484,31527484	mRNA_ends=31545035,31545035
sampled_psi	log_score
0.3206,0.6794	-2509.71
0.3085,0.6915	-2499.83
0.2596,0.7404	-2500.48
0.3058,0.6942	-2510.33
0.2920,0.7080	-2500.87
0.2950,0.7050	-2500.06
0.3405,0.6595	-2514.61
0.3100,0.6900	-2509.52
0.2816,0.7184	-2499.87
0.3452,0.6548	-2515.44
0.3015,0.6985	-2516.25
0.3371,0.6629	-2509.08
0.2990,0.7010	-2508.71
0.2931,0.7069	-2494.73
0.2766,0.7234	-2505.67
0.3377,0.6623	-2515.18
0.3000,0.7000	-2512.09
0.3005,0.6995	-2501.09
0.3259,0.6741	-2515.71
0.3332,0.6668	-2519.24
0.2988,0.7012	-2507.86
0.2815,0.7185	-2501.74
0.2942,0.7058	-2506.16
0.3166,0.6834	-2507.31
0.2906,0.7094	-2506.20
0.3301,0.6699	-2515.73
0.3155,0.6845	-2508.82
0.2691,0.7309	-2499.06
0.2694,0.7306	-2494.07
0.3228,0.6772	-2510.52
0.3018,0.6982	-2500.30
0.3294,0.6706	-2507.19
0.2846,0.7154	-2506.33
0.2851,0.7149	-2508.15
0.2797,0.7203	-2496.09
0.3118,0.6882	-2507.96
0.2800,0.7200	-2498.93
0.3201,0.6799	-2508.95
0.2905,0.7095	-2507.99
0.2716,0.7284	-2514.79
0.2765,0.7235	-2498.94
0.3411,0.6589	-2510.68
0.3088,0.6912	-2499.04
0.2914,0.7086	-2503.52
0.2821,0.7179	-2497.06
0.2740,0.7260	-2505.79
0.3242,0.6758	-2516.44
0.2836,0.7164	-2506.36
0.2908,0.7092	-2507.09
0.2781,0.7219	-2507.52
0.2790,0.7210	-2497.03
0.2575,0.7425	-2494.25
0.3349,0.6651	-2520.60
0.2739,0.7261	-2501.89
0.2843,0.7157	-2499.87
0.3182,0.6818	-2509.65
0.2789,0.7211	-2502.73
0.2563,0.7437	-2507.07
0.3181,0.6819	-2511.94
0.2590,0.7410	-2493.15
0.2902,0.7098	-2498.15
0.3349,0.6651	-2517.86
0.2710,0.7290	-2505.94
0.2559,0.7441	-2515.64
0.3670,0.6330	-2521.62
0.2439,0.7561	-2488.14
0.3007,0.6993	-2511.23
0.2933,0.7067	-2505.29
0.2994,0.7006	-2503.61
0.2514,0.7486	-2498.85
0.3128,0.6872	-2504.04
0.2493,0.7507	-2497.91
0.3278,0.6722	-2509.97
0.2831,0.7169	-2498.01
0.3278,0.6722	-2512.12
0.2452,0.7548	-2494.84
0.2852,0.7148	-2505.39
0.2996,0.7004	-2502.76
0.3222,0.6778	-2519.43
0.2507,0.7493	-2494.52
0.3251,0.6749	-2520.09
0.2650,0.7350	-2496.13
0.3084,0.6916	-2513.55
0.2758,0.7242	-2506.67
0.2597,0.7403	-2495.23
0.2680,0.7320	-2492.06
0.3144,0.6856	-2511.14
0.2656,0.7344	-2495.10
0.3383,0.6617	-2521.24
0.2824,0.7176	-2507.33
0.2497,0.7503	-2496.77
0.3300,0.6700	-2511.48
0.3143,0.6857	-2515.82
0.2809,0.7191	-2499.87
0.3372,0.6628	-2521.93
0.2890,0.7110	-2507.12
0.2506,0.7494	-2505.48
0.2604,0.7396	-2503.57
0.2949,0.7051	-2505.29
0.3097,0.6903	-2511.12
0.3193,0.6807	-2521.04
0.3186,0.6814	-2506.62
0.2217,0.7783	-2491.00
0.2788,0.7212	-2510.33
0.2735,0.7265	-2508.74
0.3110,0.6890	-2515.10
0.3170,0.6830	-2508.09
0.3378,0.6622	-2521.24
0.2495,0.7505	-2512.21
0.3127,0.6873	-2511.13
0.3099,0.6901	-2500.72
0.3191,0.6809	-2509.68
0.3708,0.6292	-2522.30
0.3065,0.6935	-2516.86
0.2383,0.7617	-2517.45
0.2766,0.7234	-2501.82
0.3148,0.6852	-2511.92
0.2910,0.7090	-2509.75
0.3446,0.6554	-2518.63
0.3000,0.7000	-2501.08
0.2889,0.7111	-2499.02
0.3192,0.6808	-2520.28
0.2974,0.7026	-2499.27
0.3053,0.6947	-2507.87
0.3044,0.6956	-2511.99
0.3071,0.6929	-2516.02
0.3059,0.6941	-2507.05
0.3076,0.6924	-2506.26
0.2947,0.7053	-2514.88
0.2985,0.7015	-2510.43
0.2790,0.7210	-2506.52
0.3369,0.6631	-2516.51
0.3329,0.6671	-2510.21
0.2926,0.7074	-2512.35
0.3005,0.6995	-2516.30
0.3116,0.6884	-2498.44
0.2748,0.7252	-2492.16
0.3267,0.6733	-2512.82
0.3031,0.6969	-2516.18
0.2882,0.7118	-2514.38
0.3035,0.6965	-2517.83
0.2536,0.7464	-2500.87
0.2781,0.7219	-2510.38
0.3000,0.7000	-2507.85
0.2953,0.7047	-2506.16
0.2916,0.7084	-2498.20
0.3234,0.6766	-2514.97
0.2681,0.7319	-2503.11
0.2832,0.7168	-2517.52
0.2972,0.7028	-2504.43
0.3194,0.6806	-2510.44
0.3149,0.6851	-2505.70
0.3113,0.6887	-2510.33
0.2564,0.7436	-2498.54
0.3059,0.6941	-2513.61
0.2752,0.7248	-2501.86
0.3805,0.6195	-2523.23
0.3298,0.6702	-2520.69
0.3362,0.6638	-2512.42
0.2401,0.7599	-2488.31
0.2938,0.7062	-2514.93
0.2999,0.7001	-2516.33
0.3685,0.6315	-2520.60
0.2877,0.7123	-2503.53
0.3371,0.6629	-2509.08
0.2574,0.7426	-2500.61
0.2701,0.7299	-2502.02
0.3236,0.6764	-2509.81
0.3420,0.6580	-2517.94
0.2914,0.7086	-2510.63
0.3319,0.6681	-2517.85
0.2768,0.7232	-2503.74
0.2840,0.7160	-2510.97
0.2834,0.7166	-2508.22
0.2970,0.7030	-2498.40
0.3120,0.6880	-2513.50
0.3202,0.6798	-2511.21
0.3088,0.6912	-2500.65
0.3020,0.6980	-2519.58
0.3328,0.6672	-2512.29
0.3063,0.6937	-2511.96
0.3578,0.6422	-2516.08
0.3594,0.6406	-2521.39
0.3341,0.6659	-2512.33
0.3113,0.6887	-2516.68
0.3022,0.6978	-2515.38
0.3003,0.6997	-2494.32
0.3164,0.6836	-2519.63
0.3111,0.6889	-2527.02
0.3239,0.6761	-2515.71
0.3217,0.6783	-2509.00
0.2665,0.7335	-2498.13
0.3159,0.6841	-2515.01
0.3084,0.6916	-2515.97
0.2740,0.7260	-2503.84
0.3063,0.6937	-2502.15
0.3269,0.6731	-2517.88
0.3040,0.6960	-2510.34
0.3443,0.6557	-2521.85
0.2991,0.7009	-2504.45
0.2784,0.7216	-2504.64
0.3365,0.6635	-2509.04
0.2845,0.7155	-2511.86
0.2774,0.7226	-2510.42
0.3717,0.6283	-2523.38
0.3271,0.6729	-2510.66
0.2960,0.7040	-2501.82
0.3270,0.6730	-2517.15
0.2983,0.7017	-2507.01
0.2603,0.7397	-2502.53
0.3807,0.6193	-2522.75
0.2892,0.7108	-2517.91
0.2894,0.7106	-2495.44
0.3519,0.6481	-2521.25
0.2959,0.7041	-2513.96
0.2441,0.7559	-2492.65
0.3771,0.6229	-2519.06
0.2694,0.7306	-2498.06
0.2970,0.7030	-2500.12
0.3586,0.6414	-2523.11
0.2828,0.7172	-2500.80
0.2331,0.7669	-2491.10
0.3359,0.6641	-2516.50
0.2884,0.7116	-2509.85
0.2796,0.7204	-2508.39
0.3655,0.6345	-2521.56
0.2519,0.7481	-2510.80
0.2449,0.7551	-2500.49
0.3382,0.6618	-2511.17
0.2590,0.7410	-2490.00
0.3116,0.6884	-2502.41
0.3752,0.6248	-2520.95
0.2594,0.7406	-2502.59
0.2716,0.7284	-2503.94
0.3395,0.6605	-2511.24
0.2902,0.7098	-2488.32
0.2940,0.7060	-2497.40
0.3185,0.6815	-2511.18
0.3038,0.6962	-2516.15
0.3379,0.6621	-2513.84
0.3274,0.6726	-2514.27
0.2993,0.7007	-2507.01
0.2615,0.7385	-2519.07
0.2898,0.7102	-2508.90
0.3067,0.6933	-2507.06
0.2899,0.7101	-2510.69
0.3091,0.6909	-2505.50
0.2738,0.7262	-2509.70
0.2822,0.7178	-2496.13
0.3024,0.6976	-2502.84
0.3072,0.6928	-2507.88
0.3370,0.6630	-2523.29
0.3115,0.6885	-2507.95
0.2964,0.7036	-2504.42
0.2894,0.7106	-2501.73
0.3019,0.6981	-2514.56
0.2815,0.7185	-2491.43
0.3771,0.6229	-2529.09
0.3116,0.6884	-2513.50
0.3107,0.6893	-2507.14
0.2949,0.7051	-2513.13
0.2754,0.7246	-2504.75
0.3332,0.6668	-2512.99
0.3562,0.6438	-2516.58
0.2833,0.7167	-2506.36
0.3321,0.6679	-2512.26
0.2929,0.7071	-2506.17
0.2880,0.7120	-2502.62
0.2913,0.7087	-2507.08
0.3286,0.6714	-2512.15
0.3281,0.6719	-2515.72
0.3021,0.6979	-2507.01
0.3094,0.6906	-2511.13
0.2611,0.7389	-2506.63
0.2857,0.7143	-2505.38
0.3117,0.6883	-2512.71
0.3164,0.6836	-2507.30
0.3309,0.6691	-2514.33
0.3194,0.6806	-2502.12
0.2563,0.7437	-2494.29
0.3157,0.6843	-2505.73
0.2673,0.7327	-2501.13
0.3164,0.6836	-2511.15
0.3080,0.6920	-2499.80
0.2972,0.7028	-2515.62
0.2760,0.7240	-2497.01
0.2688,0.7312	-2493.07
0.2795,0.7205	-2502.71
0.3302,0.6698	-2505.83
0.3249,0.6751	-2507.66
0.3156,0.6844	-2506.50
0.2997,0.7003	-2498.52
0.2718,0.7282	-2514.77
0.2882,0.7118	-2514.38
0.3124,0.6876	-2506.39
0.2864,0.7136	-2502.63
0.3142,0.6858	-2521.28
0.3209,0.6791	-2516.47
0.2953,0.7047	-2502.68
0.3190,0.6810	-2499.81
0.3292,0.6708	-2522.84
0.2987,0.7013	-2508.71
0.2614,0.7386	-2501.42
0.3248,0.6752	-2511.31
0.2749,0.7251	-2503.80
0.3747,0.6253	-2520.92
0.3493,0.6507	-2519.35
0.3074,0.6926	-2507.89
0.2699,0.7301	-2491.08
0.3101,0.6899	-2506.33
0.3023,0.6977	-2512.87
0.3179,0.6821	-2507.36
0.3792,0.6208	-2516.76
0.3343,0.6657	-2517.17
0.2796,0.7204	-2515.01
0.3409,0.6591	-2518.58
0.2859,0.7141	-2501.72
0.2889,0.7111	-2513.43
0.3406,0.6594	-2519.89
0.3553,0.6447	-2512.95
0.3054,0.6946	-2510.33
0.3616,0.6384	-2518.03
0.3328,0.6672	-2508.11
0.3124,0.6876	-2507.18
0.2743,0.7257	-2497.99
0.3581,0.6419	-2516.68
0.3365,0.6635	-2519.22
0.3664,0.6336	-2515.57
0.3566,0.6434	-2517.78
0.3131,0.6869	-2511.91
0.3076,0.6924	-2516.00
0.3546,0.6454	-2520.09
0.3624,0.6376	-2515.82
0.3469,0.6531	-2513.61
0.3616,0.6384	-2512.91
0.3135,0.6865	-2507.99
0.3414,0.6586	-2517.27
0.3603,0.6397	-2516.81
0.2731,0.7269	-2496.04
0.3262,0.6738	-2512.81
0.3465,0.6535	-2521.20
0.3073,0.6927	-2507.88
0.3278,0.6722	-2518.59
0.3411,0.6589	-2507.39
0.2819,0.7181	-2503.61
0.3262,0.6738	-2512.08
0.2991,0.7009	-2513.82
0.2815,0.7185	-2506.43
0.3264,0.6736	-2509.91
0.3178,0.6822	-2508.88
0.2874,0.7126	-2518.06
0.3323,0.6677	-2511.57
0.3011,0.6989	-2517.11
0.2650,0.7350	-2501.23
0.3209,0.6791	-2518.72
0.3173,0.6827	-2511.16
0.2922,0.7078	-2510.60
0.3383,0.6617	-2513.86
0.3028,0.6972	-2516.19
0.2946,0.7054	-2513.14
0.3611,0.6389	-2519.72
0.3338,0.6662	-2511.63
0.3262,0.6738	-2514.26
0.3493,0.6507	-2524.33
0.3089,0.6911	-2511.13
0.3057,0.6943	-2498.85
0.3526,0.6474	-2521.25
0.3182,0.6818	-2508.13
0.3319,0.6681	-2508.76
0.2949,0.7051	-2509.64
0.3154,0.6846	-2499.52
0.3230,0.6770	-2521.63
0.3437,0.6563	-2521.20
0.3058,0.6942	-2507.87
0.3423,0.6577	-2514.02
0.2800,0.7200	-2494.20
0.3047,0.6953	-2505.39
0.3101,0.6899	-2509.52
0.3736,0.6264	-2514.66
0.3498,0.6502	-2518.74
0.3506,0.6494	-2522.46
0.3237,0.6763	-2520.13
0.3137,0.6863	-2511.13
0.3234,0.6766	-2514.23
0.3836,0.6164	-2524.33
0.3499,0.6501	-2518.13
0.3558,0.6442	-2516.56
0.3169,0.6831	-2515.77
0.3254,0.6746	-2511.33
0.2996,0.7004	-2523.14
0.3522,0.6478	-2520.03
0.3232,0.6768	-2506.84
0.3278,0.6722	-2508.53
0.2949,0.7051	-2497.44
0.3087,0.6913	-2505.49
0.2781,0.7219	-2500.84
0.3729,0.6271	-2520.30
0.3507,0.6493	-2521.85
0.2742,0.7258	-2518.43
0.2890,0.7110	-2518.83
0.3600,0.6400	-2511.05
0.3063,0.6937	-2502.15
0.2924,0.7076	-2495.57
0.3015,0.6985	-2511.21
0.2929,0.7071	-2502.65
0.2503,0.7497	-2494.54
0.3359,0.6641	-2513.09
0.2979,0.7021	-2504.44
0.3219,0.6781	-2516.46
0.3522,0.6478	-2516.37
0.3163,0.6837	-2515.78
0.2673,0.7327	-2503.15
0.3069,0.6931	-2514.40
0.2987,0.7013	-2501.03
0.2565,0.7435	-2496.41
0.3580,0.6420	-2517.26
0.3268,0.6732	-2514.99
0.2815,0.7185	-2510.17
0.2902,0.7098	-2491.00
0.3193,0.6807	-2509.68
0.2827,0.7173	-2499.87
0.3396,0.6604	-2509.92
0.3391,0.6609	-2520.56
0.2890,0.7110	-2502.62
0.2741,0.7259	-2501.89
0.3254,0.6746	-2506.23
0.2698,0.7302	-2511.00
0.3230,0.6770	-2509.05
0.2735,0.7265	-2499.95
0.2743,0.7257	-2509.67
0.3189,0.6811	-2505.12
0.3175,0.6825	-2515.76
0.2871,0.7129	-2505.35
0.3015,0.6985	-2504.49
0.3040,0.6960	-2526.91
0.2325,0.7675	-2499.51
0.2748,0.7252	-2505.75
0.2805,0.7195	-2505.52
0.3045,0.6955	-2514.47
0.3224,0.6776	-2522.39
0.2972,0.7028	-2502.71
0.2593,0.7407	-2495.25
0.3018,0.6982	-2501.14
0.2610,0.7390	-2505.61
0.2628,0.7372	-2493.09
0.3006,0.6994	-2503.63
0.3131,0.6869	-2508.77
0.3315,0.6685	-2514.34
0.2682,0.7318	-2507.12
0.2835,0.7165	-2509.14
0.3120,0.6880	-2520.61
0.3057,0.6943	-2500.48
0.2888,0.7112	-2500.82
0.3221,0.6779	-2518.69
0.2947,0.7053	-2500.92
0.2887,0.7113	-2509.84
0.3388,0.6612	-2513.88
0.3379,0.6621	-2517.21
0.2601,0.7399	-2505.68
0.3170,0.6830	-2505.79
0.3072,0.6928	-2512.76
0.2859,0.7141	-2512.70
0.3508,0.6492	-2523.69
0.3183,0.6817	-2514.23
0.2795,0.7205	-2496.09
0.3206,0.6794	-2519.48
0.3008,0.6992	-2507.01
0.2877,0.7123	-2507.16
0.3106,0.6894	-2510.33
0.3362,0.6638	-2514.46
0.2641,0.7359	-2504.35
0.3086,0.6914	-2503.87
0.2803,0.7197	-2501.76
0.3048,0.6952	-2505.39
0.3300,0.6700	-2519.98
0.3109,0.6891	-2511.92
0.2977,0.7023	-2505.29
0.3177,0.6823	-2507.35
0.2359,0.7641	-2494.41
0.3129,0.6871	-2504.05
0.3067,0.6933	-2510.32
0.3090,0.6910	-2502.27
0.2899,0.7101	-2503.52
0.3141,0.6859	-2517.38
0.2317,0.7683	-2493.62
0.3169,0.6831	-2523.45
0.2766,0.7234	-2501.82
0.3065,0.6935	-2516.04
0.2869,0.7131	-2506.27
0.3480,0.6520	-2519.95
0.2265,0.7735	-2499.09
0.3427,0.6573	-2517.30
0.2885,0.7115	-2515.26
0.3143,0.6857	-2508.02
0.3013,0.6987	-2503.65
0.3520,0.6480	-2524.91
0.2704,0.7296	-2501.02
0.3366,0.6634	-2517.19
0.2881,0.7119	-2500.81
0.3205,0.6795	-2510.46
0.3081,0.6919	-2505.47
0.3525,0.6475	-2515.17
0.3073,0.6927	-2519.26
0.2927,0.7073	-2506.17
0.3100,0.6900	-2507.92
0.3387,0.6613	-2515.88
0.3072,0.6928	-2517.64
0.3683,0.6317	-2520.59
0.2785,0.7215	-2512.25
0.2814,0.7186	-2500.80
0.3193,0.6807	-2500.60
0.3012,0.6988	-2502.80
0.3289,0.6711	-2505.74
0.3307,0.6693	-2517.85
0.2666,0.7334	-2496.10
0.2530,0.7470	-2504.16
0.3021,0.6979	-2512.88
0.3117,0.6883	-2518.25
0.3331,0.6669	-2519.24
0.3361,0.6639	-2509.01
0.2910,0.7090	-2516.88
0.2776,0.7224	-2508.50
0.2707,0.7293	-2504.97
0.3344,0.6656	-2517.17
0.3085,0.6915	-2516.78
0.3611,0.6389	-2523.14
0.2562,0.7438	-2509.21
0.2565,0.7435	-2509.18
0.2702,0.7298	-2506.99
0.3120,0.6880	-2508.75
0.3160,0.6840	-2513.47
0.3615,0.6385	-2515.19
0.2545,0.7455	-2499.73
0.2772,0.7228	-2495.10
0.2476,0.7524	-2501.36
0.3377,0.6623	-2519.22
0.3001,0.6999	-2517.17
0.3675,0.6325	-2523.27
0.2934,0.7066	-2509.68
0.2669,0.7331	-2519.34
0.2649,0.7351	-2492.05
0.2871,0.7129	-2501.72
0.2844,0.7156	-2503.56
0.3775,0.6225	-2521.59
0.3115,0.6885	-2507.16
0.2983,0.7017	-2507.01
0.3000,0.7000	-2507.01
0.3167,0.6833	-2499.62
0.2864,0.7136	-2509.02
0.3417,0.6583	-2512.03
0.3218,0.6782	-2518.70
0.2996,0.7004	-2506.16
0.2872,0.7128	-2497.17
0.3074,0.6926	-2506.26
0.2540,0.7460	-2499.76
0.3342,0.6658	-2513.72
0.2712,0.7288	-2510.88
0.3012,0.6988	-2508.69
0.2768,0.7232	-2506.62
0.3499,0.6501	-2511.32
0.2405,0.7595	-2508.99
0.3133,0.6867	-2516.62
0.2861,0.7139	-2507.20
0.2970,0.7030	-2508.74
0.3023,0.6977	-2510.36
0.3324,0.6676	-2510.18
0.2740,0.7260	-2511.63
0.3018,0.6982	-2513.72
0.2754,0.7246	-2512.50
0.3070,0.6930	-2517.65
0.2911,0.7089	-2509.75
0.3836,0.6164	-2521.49
0.2908,0.7092	-2506.20
0.3035,0.6965	-2499.55
0.3013,0.6987	-2500.28
0.3528,0.6472	-2518.83
0.2892,0.7108	-2500.83
0.3517,0.6483	-2520.02
0.3024,0.6976	-2510.36
0.2694,0.7306	-2493.07
0.2926,0.7074	-2496.47
0.3149,0.6851	-2524.35
0.2862,0.7138	-2503.54
0.3339,0.6661	-2519.23
0.2929,0.7071	-2509.70
0.2830,0.7170	-2500.80
0.3299,0.6701	-2512.18
0.2912,0.7088	-2514.20
0.2896,0.7104	-2495.44
0.3093,0.6907	-2503.89
0.2951,0.7049	-2512.25
0.2952,0.7048	-2503.55
0.3229,0.6771	-2505.35
0.2789,0.7211	-2516.97
0.3058,0.6942	-2507.87
0.3161,0.6839	-2509.61
0.2846,0.7154	-2504.48
0.2874,0.7126	-2508.07
0.3151,0.6849	-2506.48
0.2747,0.7253	-2510.61
0.2831,0.7169	-2500.80
0.3252,0.6748	-2514.98
0.3064,0.6936	-2505.42
0.2544,0.7456	-2495.43
0.3168,0.6832	-2516.54
0.2764,0.7236	-2508.56
0.3037,0.6963	-2512.00
0.3362,0.6638	-2509.02
0.3156,0.6844	-2510.37
0.3035,0.6965	-2512.84
0.2845,0.7155	-2499.87
0.2555,0.7445	-2506.08
0.3066,0.6934	-2521.75
0.3500,0.6500	-2524.32
0.3270,0.6730	-2512.10
0.2807,0.7193	-2508.34
0.2803,0.7197	-2500.81
0.2825,0.7175	-2503.59
0.3883,0.6117	-2527.74
0.3097,0.6903	-2496.69
0.3154,0.6846	-2507.27
0.3068,0.6932	-2503.80
0.2824,0.7176	-2507.33
0.2807,0.7193	-2510.22
0.3408,0.6592	-2517.92
0.3529,0.6471	-2521.26
0.3480,0.6520	-2515.56
0.3297,0.6703	-2509.34
0.2713,0.7287	-2508.89
0.3371,0.6629	-2515.17
0.2784,0.7216	-2509.40
0.3219,0.6781	-2514.97
0.3511,0.6489	-2512.02
0.3360,0.6640	-2509.01
0.2749,0.7251	-2497.02
0.3295,0.6705	-2512.88
0.3090,0.6910	-2507.10
0.3052,0.6948	-2509.51
0.3242,0.6758	-2516.44
0.3275,0.6725	-2513.55
0.3124,0.6876	-2514.28
0.3799,0.6201	-2514.86
0.2996,0.7004	-2508.70
0.3111,0.6889	-2507.15
0.3458,0.6542	-2522.48
0.3336,0.6664	-2517.16
0.3154,0.6846	-2513.47
0.3733,0.6267	-2521.88
0.2980,0.7020	-2504.44
0.3614,0.6386	-2516.88
0.3071,0.6929	-2511.14
0.3044,0.6956	-2520.26
0.3100,0.6900	-2506.32
0.3521,0.6479	-2512.71
0.3481,0.6519	-2511.80
0.3605,0.6395	-2517.40
0.3125,0.6875	-2503.24
0.3276,0.6724	-2507.08
0.2996,0.7004	-2502.76
0.3157,0.6843	-2512.69
0.3344,0.6656	-2510.97
0.3503,0.6497	-2524.93
0.2676,0.7324	-2506.15
0.3187,0.6813	-2515.74
0.2906,0.7094	-2512.45
0.2977,0.7023	-2506.15
0.3138,0.6862	-2517.39
0.3531,0.6469	-2521.87
0.2902,0.7098	-2499.05
0.2957,0.7043	-2514.83
0.2993,0.7007	-2506.16
0.3256,0.6744	-2513.52
0.2896,0.7104	-2503.52
0.3459,0.6541	-2519.29
0.2813,0.7187	-2513.94
0.3023,0.6977	-2508.69
0.3459,0.6541	-2518.65
0.3187,0.6813	-2519.54
0.2955,0.7045	-2508.76
0.3143,0.6857	-2514.26
0.2527,0.7473	-2500.93
0.3014,0.6986	-2498.60
0.3345,0.6655	-2513.73
0.3272,0.6728	-2507.78
0.2641,0.7359	-2499.23
0.3122,0.6878	-2502.44
0.2503,0.7497	-2508.80
0.3182,0.6818	-2502.80
0.3305,0.6695	-2511.50
0.3459,0.6541	-2517.38
0.2562,0.7438	-2507.08
0.3398,0.6602	-2512.59
0.2630,0.7370	-2500.30
0.3720,0.6280	-2516.06
0.2872,0.7128	-2515.35
0.3118,0.6882	-2511.92
0.2776,0.7224	-2493.19
0.2949,0.7051	-2514.88
0.2708,0.7292	-2503.98
0.3232,0.6768	-2514.23
0.3178,0.6822	-2513.46
0.3472,0.6528	-2517.42
0.2931,0.7069	-2492.96
0.2599,0.7401	-2501.51
0.3214,0.6786	-2503.76
0.2895,0.7105	-2509.81
0.3241,0.6759	-2520.12
0.2811,0.7189	-2504.56
0.2662,0.7338	-2511.31
0.2507,0.7493	-2502.18
0.3584,0.6416	-2517.87
0.2391,0.7609	-2494.14
0.3146,0.6854	-2515.03
0.2800,0.7200	-2504.59
0.3007,0.6993	-2504.48
0.3155,0.6845	-2503.40
0.3318,0.6682	-2515.75
0.2857,0.7143	-2507.21
0.3138,0.6862	-2511.91
0.2849,0.7151	-2502.64
0.3173,0.6827	-2515.00
0.3144,0.6856	-2520.49
0.2884,0.7116	-2515.27
0.2939,0.7061	-2507.04
0.2748,0.7252	-2497.02
0.2743,0.7257	-2495.07
0.3525,0.6475	-2515.78
0.3206,0.6794	-2509.72
0.3022,0.6978	-2506.18
0.2666,0.7334	-2507.23
0.2940,0.7060	-2505.29
0.3306,0.6694	-2505.86
0.3659,0.6341	-2521.03
0.3326,0.6674	-2518.55
0.3077,0.6923	-2515.19
0.2730,0.7270	-2498.00
0.2891,0.7109	-2499.93
0.3979,0.6021	-2524.29
0.3475,0.6525	-2524.36
0.3486,0.6514	-2512.46
0.3096,0.6904	-2503.10
0.3093,0.6907	-2507.11
0.3037,0.6963	-2516.15
0.3867,0.6133	-2527.25
0.3493,0.6507	-2515.00
0.3120,0.6880	-2504.80
0.2822,0.7178	-2511.07
0.2939,0.7061	-2501.78
0.2591,0.7409	-2494.20
0.4053,0.5947	-2531.39
0.3476,0.6524	-2513.02
0.2913,0.7087	-2513.30
0.3323,0.6677	-2513.66
0.2499,0.7501	-2491.27
0.3036,0.6964	-2512.84
0.4240,0.5760	-2530.03
0.3170,0.6830	-2513.46
0.2928,0.7072	-2507.94
0.3424,0.6576	-2512.72
0.2862,0.7138	-2501.71
0.2880,0.7120	-2513.48
0.3757,0.6243	-2521.49
0.3279,0.6721	-2503.51
0.3091,0.6909	-2515.95
0.3143,0.6857	-2502.55
0.3282,0.6718	-2520.73
0.3062,0.6938	-2511.14
0.3926,0.6074	-2524.79
0.3483,0.6517	-2510.56
0.2580,0.7420	-2504.80
0.3360,0.6640	-2513.78
0.3003,0.6997	-2508.70
0.3102,0.6898	-2519.12
0.3823,0.6177	-2522.84
0.3922,0.6078	-2527.40
0.2674,0.7326	-2488.03
0.3166,0.6834	-2519.62
0.2863,0.7137	-2498.06
0.3084,0.6916	-2507.90
0.3940,0.6060	-2532.63
0.3561,0.6439	-2525.46
0.2421,0.7579	-2506.47
0.3251,0.6749	-2516.44
0.3063,0.6937	-2516.86
0.3402,0.6598	-2515.26
0.3961,0.6039	-2521.63
0.3430,0.6570	-2521.85
0.2419,0.7581	-2497.36
0.2675,0.7325	-2501.13
0.2773,0.7227	-2505.64
0.3089,0.6911	-2514.35
0.3991,0.6009	-2521.51
0.3605,0.6395	-2524.28
0.2467,0.7533	-2483.58
0.2775,0.7225	-2508.50
0.2818,0.7182	-2504.54
0.2808,0.7192	-2502.69
0.3097,0.6903	-2510.32
0.3224,0.6776	-2509.03
0.2650,0.7350	-2494.09
0.3105,0.6895	-2507.13
0.2588,0.7412	-2502.63
0.2937,0.7063	-2515.82
0.3382,0.6618	-2517.21
0.3318,0.6682	-2510.15
0.2824,0.7176	-2506.39
0.3099,0.6901	-2507.92
0.3272,0.6728	-2518.59
0.2988,0.7012	-2506.15
0.2747,0.7253	-2500.90
0.3281,0.6719	-2510.70
0.2618,0.7382	-2494.14
0.3362,0.6638	-2521.95
0.3561,0.6439	-2518.35
0.3106,0.6894	-2505.54
0.2793,0.7207	-2504.61
0.3150,0.6850	-2511.92
0.3245,0.6755	-2513.51
0.3102,0.6898	-2499.94
0.3913,0.6087	-2521.63
0.2892,0.7108	-2500.83
0.2676,0.7324	-2494.07
0.3163,0.6837	-2503.45
0.3120,0.6880	-2512.71
0.3381,0.6619	-2511.16
0.3717,0.6283	-2519.19
0.3452,0.6548	-2514.16
0.2732,0.7268	-2489.19
0.2758,0.7242	-2509.56
0.3288,0.6712	-2510.01
0.3425,0.6575	-2519.25
0.3812,0.6188	-2523.75
0.3311,0.6689	-2516.44
0.2972,0.7028	-2495.82
0.2930,0.7070	-2509.70
0.2885,0.7115	-2494.50
0.3391,0.6609	-2517.22
0.3424,0.6576	-2514.68
0.3643,0.6357	-2518.74
0.3308,0.6692	-2517.15
0.3164,0.6836	-2515.01
0.3089,0.6911	-2505.49
0.3089,0.6911	-2512.74
0.3272,0.6728	-2509.22
0.3563,0.6437	-2523.68
0.3024,0.6976	-2513.70
0.2876,0.7124	-2500.81
0.3258,0.6742	-2517.89
0.3285,0.6715	-2516.43
0.2969,0.7031	-2512.19
0.3331,0.6669	-2521.32
0.3481,0.6519	-2508.66
0.2693,0.7307	-2498.06
0.3046,0.6954	-2513.64
0.2998,0.7002	-2503.61
0.2589,0.7411	-2504.73
0.3734,0.6266	-2520.85
0.3232,0.6768	-2507.58
0.2947,0.7053	-2502.67
0.3236,0.6764	-2501.70
0.3156,0.6844	-2511.92
0.2693,0.7307	-2500.06
0.3413,0.6587	-2515.95
0.3366,0.6634	-2507.01
0.2861,0.7139	-2502.63
0.3132,0.6868	-2520.55
0.3123,0.6877	-2526.92
0.2912,0.7088	-2515.09
0.3295,0.6705	-2509.33
0.3156,0.6844	-2515.79
0.2924,0.7076	-2509.71
0.3225,0.6775	-2518.68
0.3005,0.6995	-2508.70
0.3297,0.6703	-2517.15
0.3251,0.6749	-2516.44
0.2940,0.7060	-2509.67
0.3099,0.6901	-2512.73
0.3022,0.6978	-2510.36
0.2731,0.7269	-2509.75
0.3049,0.6951	-2515.28
0.3285,0.6715	-2515.72
0.2838,0.7162	-2498.02
0.2975,0.7025	-2516.46
0.2866,0.7134	-2519.96
0.3068,0.6932	-2506.25
0.2993,0.7007	-2507.86
0.2789,0.7211	-2500.83
0.2865,0.7135	-2501.71
0.2751,0.7249	-2508.64
0.2800,0.7200	-2499.87
0.3334,0.6666	-2520.62
0.3123,0.6877	-2507.18
0.2896,0.7104	-2503.52
0.2782,0.7218	-2511.32
0.2858,0.7142	-2514.54
0.3050,0.6950	-2508.69
0.3606,0.6394	-2518.55
0.3227,0.6773	-2512.00
0.2802,0.7198	-2514.96
0.2422,0.7578	-2490.49
0.3229,0.6771	-2512.01
0.3049,0.6951	-2508.69
0.3529,0.6471	-2515.80
0.3184,0.6816	-2514.99
0.2524,0.7476	-2497.70
0.2659,0.7341	-2498.15
0.3474,0.6526	-2523.73
0.3050,0.6950	-2514.45
0.3351,0.6649	-2518.54
0.2454,0.7546	-2488.09
0.2518,0.7482	-2510.81
0.2619,0.7381	-2503.46
0.3060,0.6940	-2505.41
0.3327,0.6673	-2506.71
0.2962,0.7038	-2513.94
0.2461,0.7539	-2508.22
0.2842,0.7158	-2512.81
0.3146,0.6854	-2515.81
0.3853,0.6147	-2523.01
0.3520,0.6480	-2516.36
0.2531,0.7469	-2494.41
0.2707,0.7293	-2502.00
0.2548,0.7452	-2499.71
0.3257,0.6743	-2521.53
0.3703,0.6297	-2524.93
0.3667,0.6333	-2525.43
0.2893,0.7107	-2506.22
0.2869,0.7131	-2505.36
0.2723,0.7277	-2504.89
0.3303,0.6697	-2517.85
0.3310,0.6690	-2505.89
0.3139,0.6861	-2514.26
0.2859,0.7141	-2517.28
0.2693,0.7307	-2503.05
0.2906,0.7094	-2512.44
0.3329,0.6671	-2516.46
0.3396,0.6604	-2504.60
0.2880,0.7120	-2508.05
0.3038,0.6962	-2512.83
0.2628,0.7372	-2512.69
0.2525,0.7475	-2493.35
0.3294,0.6706	-2517.15
0.3401,0.6599	-2517.91
0.3151,0.6849	-2514.25
0.3314,0.6686	-2515.04
0.2766,0.7234	-2506.63
0.3014,0.6986	-2502.81
0.3414,0.6586	-2519.90
0.3535,0.6465	-2524.89
0.3377,0.6623	-2512.49
0.2861,0.7139	-2507.20
0.2968,0.7032	-2507.01
0.2674,0.7326	-2508.18
0.3475,0.6525	-2516.17
0.3375,0.6625	-2507.76
0.3133,0.6867	-2507.99
0.2705,0.7295	-2509.95
0.3278,0.6722	-2517.15
0.2821,0.7179	-2500.80
0.2724,0.7276	-2498.01
0.3456,0.6544	-2509.71
0.3564,0.6436	-2513.04
0.3183,0.6817	-2513.46
0.2988,0.7012	-2502.74
0.2947,0.7053	-2508.78
0.3557,0.6443	-2510.02
0.3344,0.6656	-2528.18
0.3359,0.6641	-2526.72
0.3057,0.6943	-2506.23
0.3358,0.6642	-2518.54
0.3213,0.6787	-2501.51
0.3656,0.6344	-2521.02
0.3216,0.6784	-2511.98
0.3294,0.6706	-2512.17
0.3192,0.6808	-2507.41
0.3444,0.6556	-2511.54
0.3037,0.6963	-2507.86
0.3487,0.6513	-2519.34
0.2930,0.7070	-2508.81
0.3306,0.6694	-2519.97
0.3232,0.6768	-2524.58
0.3350,0.6650	-2510.31
0.3559,0.6441	-2513.60
0.2837,0.7163	-2506.35
0.3068,0.6932	-2505.43
0.3188,0.6812	-2511.19
0.3102,0.6898	-2509.53
0.3440,0.6560	-2521.20
0.2907,0.7093	-2509.77
0.3290,0.6710	-2509.31
0.2842,0.7158	-2503.57
0.3046,0.6954	-2512.81
0.2542,0.7458	-2504.05
0.3489,0.6511	-2523.09
0.2949,0.7051	-2498.31
0.3097,0.6903	-2507.92
0.2884,0.7116	-2507.14
0.2667,0.7333	-2497.11
0.2570,0.7430	-2507.01
0.3523,0.6477	-2518.82
0.2882,0.7118	-2514.38
0.2664,0.7336	-2512.31
0.2970,0.7030	-2509.60
0.2952,0.7048	-2508.77
0.2647,0.7353	-2507.38
0.2989,0.7011	-2499.33
0.2655,0.7345	-2508.33
0.2784,0.7216	-2502.74
0.3072,0.6928	-2512.76
0.2738,0.7262	-2501.90
0.2936,0.7064	-2507.92
0.2935,0.7065	-2507.92
0.2997,0.7003	-2505.31
0.2749,0.7251	-2505.74
0.2795,0.7205	-2498.93
0.2606,0.7394	-2501.46
0.3706,0.6294	-2518.58
0.3150,0.6850	-2515.80
0.3078,0.6922	-2498.97
0.3285,0.6715	-2515.72
0.3351,0.6649	-2513.75
0.2801,0.7199	-2506.48
0.3079,0.6921	-2511.94
0.3135,0.6865	-2515.05
0.3088,0.6912	-2509.52
0.3137,0.6863	-2514.26
0.3485,0.6515	-2522.46
0.2677,0.7323	-2508.16
0.3092,0.6908	-2509.52
0.3132,0.6868	-2522.90
0.3378,0.6622	-2522.59
0.2765,0.7235	-2498.94
0.2830,0.7170	-2512.88
0.2905,0.7095	-2504.41
0.3107,0.6893	-2505.55
0.3302,0.6698	-2513.61
0.3480,0.6520	-2519.95
0.3393,0.6607	-2517.23
0.3000,0.7000	-2515.48
0.2918,0.7082	-2504.41
0.3276,0.6724	-2503.49
0.3330,0.6670	-2513.68
0.3428,0.6572	-2514.70
0.3370,0.6630	-2515.16
0.3240,0.6760	-2515.71
0.2963,0.7037	-2512.21
0.3265,0.6735	-2506.30
0.3007,0.6993	-2509.54
0.3559,0.6441	-2513.60
0.3236,0.6764	-2508.34
0.3118,0.6882	-2518.25
0.3263,0.6737	-2501.21
0.3126,0.6874	-2508.76
0.3089,0.6911	-2510.32
0.2888,0.7112	-2499.92
0.3149,0.6851	-2511.92
0.2871,0.7129	-2509.90
0.3469,0.6531	-2517.41
0.2972,0.7028	-2507.01
0.2951,0.7049	-2497.45
0.2846,0.7154	-2505.41
0.3118,0.6882	-2507.17
0.2685,0.7315	-2499.08
0.3624,0.6376	-2514.69
0.3176,0.6824	-2513.46
0.2895,0.7105	-2501.73
0.2845,0.7155	-2504.49
0.3100,0.6900	-2513.52
0.2747,0.7253	-2498.96
0.3607,0.6393	-2518.56
0.3042,0.6958	-2508.69
0.2911,0.7089	-2508.86
0.2918,0.7082	-2507.96
0.3121,0.6879	-2514.29
0.2904,0.7096	-2512.46
0.3744,0.6256	-2515.78
0.3368,0.6632	-2511.77
0.2658,0.7342	-2514.40
0.3236,0.6764	-2507.60
0.3147,0.6853	-2512.69
0.2794,0.7206	-2520.71
0.3609,0.6391	-2519.71
0.3198,0.6802	-2514.22
0.3046,0.6954	-2507.86
0.3425,0.6575	-2509.47
0.3224,0.6776	-2508.28
0.2798,0.7202	-2504.60
0.3388,0.6612	-2507.19
0.3085,0.6915	-2509.51
0.2999,0.7001	-2502.77
0.3568,0.6432	-2521.33
0.2997,0.7003	-2506.16
0.2956,0.7044	-2498.34
0.3283,0.6717	-2517.86
0.3020,0.6980	-2519.58
0.2886,0.7114	-2513.45
0.3157,0.6843	-2516.56
0.3018,0.6982	-2509.53
0.2863,0.7137	-2497.15
0.3157,0.6843	-2508.83
0.3373,0.6627	-2514.50
0.2892,0.7108	-2493.63
0.2909,0.7091	-2503.52
0.2908,0.7092	-2516.00
0.3103,0.6897	-2511.12
0.2949,0.7051	-2510.52
0.3758,0.6242	-2518.96
0.3146,0.6854	-2514.25
0.3253,0.6747	-2518.62
0.3337,0.6663	-2514.39
0.3352,0.6648	-2504.85
0.3057,0.6943	-2514.43
0.3785,0.6215	-2515.70
0.2915,0.7085	-2515.96
0.3258,0.6742	-2506.98
0.3053,0.6947	-2509.51
0.3668,0.6332	-2519.43
0.3179,0.6821	-2505.83
0.3280,0.6720	-2511.41
0.2695,0.7305	-2502.05
0.3264,0.6736	-2517.88
0.3049,0.6951	-2516.10
0.3776,0.6224	-2520.09
0.3046,0.6954	-2501.26
0.3784,0.6216	-2522.63
0.3010,0.6990	-2496.06
0.3057,0.6943	-2513.61
0.2834,0.7166	-2495.23
0.3073,0.6927	-2513.57
0.3230,0.6770	-2510.53
0.3443,0.6557	-2516.05
0.3036,0.6964	-2506.20
0.2919,0.7081	-2513.27
0.2768,0.7232	-2509.50
0.3494,0.6506	-2516.87
0.3302,0.6698	-2512.90
0.3066,0.6934	-2502.98
0.2655,0.7345	-2500.19
0.2860,0.7140	-2506.29
0.3040,0.6960	-2504.54
0.2909,0.7091	-2509.76
0.3267,0.6733	-2506.31
0.3025,0.6975	-2507.85
0.2716,0.7284	-2499.99
0.2848,0.7152	-2492.51
0.3258,0.6742	-2505.52
0.2667,0.7333	-2500.15
0.3321,0.6679	-2515.75
0.3221,0.6779	-2511.99
0.2731,0.7269	-2501.92
0.2770,0.7230	-2496.06
0.3017,0.6983	-2507.01
0.2616,0.7384	-2507.63
0.3148,0.6852	-2509.58
0.3245,0.6755	-2519.37
0.2399,0.7601	-2513.68
0.2658,0.7342	-2514.40
0.2853,0.7147	-2499.88
0.2905,0.7095	-2512.45
0.3257,0.6743	-2510.61
0.3409,0.6591	-2506.05
0.2546,0.7454	-2513.68
0.3076,0.6924	-2511.94
0.2905,0.7095	-2500.84
0.2635,0.7365	-2498.22
0.3590,0.6410	-2513.25
0.3297,0.6703	-2513.60
0.2460,0.7540	-2505.98
0.3152,0.6848	-2514.25
0.3300,0.6700	-2519.27
0.3113,0.6887	-2511.92
0.2945,0.7055	-2515.77
0.3180,0.6820	-2513.46
0.2767,0.7233	-2496.05
0.2863,0.7137	-2502.63
0.2867,0.7133	-2502.63
0.3290,0.6710	-2515.72
0.2733,0.7267	-2507.78
0.2695,0.7305	-2508.03
0.2928,0.7072	-2501.76
0.2785,0.7215	-2501.78
0.2991,0.7009	-2504.45
0.2748,0.7252	-2512.55
0.3149,0.6851	-2508.03
0.2794,0.7206	-2512.19
0.2873,0.7127	-2495.36
0.3093,0.6907	-2507.11
0.3477,0.6523	-2516.18
0.2352,0.7648	-2488.58
0.3171,0.6829	-2511.93
0.2683,0.7317	-2503.10
0.3301,0.6699	-2511.48
0.2912,0.7088	-2502.63
0.3357,0.6643	-2508.31
0.2559,0.7441	-2506.04
0.3370,0.6630	-2513.13
0.3119,0.6881	-2506.38
0.2875,0.7125	-2513.51
0.2892,0.7108	-2502.62
0.3618,0.6382	-2522.02
0.2925,0.7075	-2511.47
0.2915,0.7085	-2506.19
0.3441,0.6559	-2514.11
0.2894,0.7106	-2506.22
0.2764,0.7236	-2504.71
0.3285,0.6715	-2508.57
0.2630,0.7370	-2503.40
0.2958,0.7042	-2520.03
0.3332,0.6668	-2513.69
0.2814,0.7186	-2500.80
0.3601,0.6399	-2511.06
0.3245,0.6755	-2508.38
0.2907,0.7093	-2503.52
0.2713,0.7287	-2509.88
0.2776,0.7224	-2508.50
0.2814,0.7186	-2518.62
0.3704,0.6296	-2513.80
0.3567,0.6433	-2510.70
0.3134,0.6866	-2500.93
0.3084,0.6916	-2514.36
0.2474,0.7526	-2493.59
0.3007,0.6993	-2511.23
0.3738,0.6262	-2521.90
0.3487,0.6513	-2518.09
0.3072,0.6928	-2510.32
0.3211,0.6789	-2517.97
0.2590,0.7410	-2502.61
0.3251,0.6749	-2505.48
0.3354,0.6646	-2512.39
0.3620,0.6380	-2523.15
0.3350,0.6650	-2514.43
0.3058,0.6942	-2505.41
0.2793,0.7207	-2503.67
0.3556,0.6444	-2512.98
0.3656,0.6344	-2519.37
0.3574,0.6426	-2514.30
0.3578,0.6422	-2519.59
0.2881,0.7119	-2515.29
0.3177,0.6823	-2505.82
0.3685,0.6315	-2521.14
0.3244,0.6756	-2520.11
0.3600,0.6400	-2520.25
0.3536,0.6464	-2518.25
0.3096,0.6904	-2499.90
0.3355,0.6645	-2517.86
0.3664,0.6336	-2521.60
0.3001,0.6999	-2515.47
0.3411,0.6589	-2506.07
0.3470,0.6530	-2521.84
0.3293,0.6707	-2511.46
0.2890,0.7110	-2508.03
0.3638,0.6362	-2531.57
0.2976,0.7024	-2507.87
0.3086,0.6914	-2513.55
0.3098,0.6902	-2499.91
0.3277,0.6723	-2517.15
0.2997,0.7003	-2501.91
0.3739,0.6261	-2519.33
0.2895,0.7105	-2508.91
0.3283,0.6717	-2512.85
0.3027,0.6973	-2513.69
0.3279,0.6721	-2518.58
0.2889,0.7111	-2513.43
0.3814,0.6186	-2522.31
0.2926,0.7074	-2514.12
0.4047,0.5953	-2526.75
0.3372,0.6628	-2512.47
0.3168,0.6832	-2511.16
0.2994,0.7006	-2514.66
0.3367,0.6633	-2514.48
0.2971,0.7029	-2497.54
0.3940,0.6060	-2524.01
0.3593,0.6407	-2520.80
0.3031,0.6969	-2512.02
0.3005,0.6995	-2502.78
0.3536,0.6464	-2520.67
0.2951,0.7049	-2516.60
0.3800,0.6200	-2527.12
0.3524,0.6476	-2515.17
0.3282,0.6718	-2512.85
0.2905,0.7095	-2512.45
0.3550,0.6450	-2517.71
0.2824,0.7176	-2513.85
0.3762,0.6238	-2523.54
0.3131,0.6869	-2510.34
0.3015,0.6985	-2502.81
0.3529,0.6471	-2520.65
0.3375,0.6625	-2514.50
0.3141,0.6859	-2506.45
0.3570,0.6430	-2519.57
0.3157,0.6843	-2504.96
0.3559,0.6441	-2512.41
0.3166,0.6834	-2511.16
0.3421,0.6579	-2522.52
0.3092,0.6908	-2507.11
0.3173,0.6827	-2511.16
0.3035,0.6965	-2509.52
0.3304,0.6696	-2519.97
0.3016,0.6984	-2510.37
0.3071,0.6929	-2514.39
0.3239,0.6761	-2520.12
0.2959,0.7041	-2502.69
0.2674,0.7326	-2504.15
0.3008,0.6992	-2506.17
0.3083,0.6917	-2509.51
0.3326,0.6674	-2510.88
0.3219,0.6781	-2517.95
0.3236,0.6764	-2514.97
0.2727,0.7273	-2503.89
0.2782,0.7218	-2516.09
0.3034,0.6966	-2517.00
0.3190,0.6810	-2518.77
0.3276,0.6724	-2515.71
0.3403,0.6597	-2521.22
0.2450,0.7550	-2509.49
0.2853,0.7147	-2516.41
0.3153,0.6847	-2503.39
0.3446,0.6554	-2519.92
0.2909,0.7091	-2491.94
0.3591,0.6409	-2519.06
0.2403,0.7597	-2506.71
0.2907,0.7093	-2507.09
0.3543,0.6457	-2513.47
0.3154,0.6846	-2511.92
0.3025,0.6975	-2508.69
0.2961,0.7039	-2512.21
0.2825,0.7175	-2500.80
0.2997,0.7003	-2502.76
0.3358,0.6642	-2515.81
0.3245,0.6755	-2502.51
0.2955,0.7045	-2506.15
0.3366,0.6634	-2521.94
0.3261,0.6739	-2512.08
0.3454,0.6546	-2519.92
0.3309,0.6691	-2515.04
0.3014,0.6986	-2507.01
0.2898,0.7102	-2511.59
0.3326,0.6674	-2523.42
0.2889,0.7111	-2504.43
0.3373,0.6627	-2515.85
0.3033,0.6967	-2518.67
0.2815,0.7185	-2501.74
0.2625,0.7375	-2499.29
0.2976,0.7024	-2501.00
0.2869,0.7131	-2509.91
0.3264,0.6736	-2517.16
0.2839,0.7161	-2503.57
0.2878,0.7122	-2507.15
0.3009,0.6991	-2513.75
0.3140,0.6860	-2501.75
0.3127,0.6873	-2506.40
0.3012,0.6988	-2503.64
0.2634,0.7366	-2500.29
0.2721,0.7279	-2508.84
0.2969,0.7031	-2507.88
0.3290,0.6710	-2510.02
0.2867,0.7133	-2497.16
0.2680,0.7320	-2508.14
0.3011,0.6989	-2504.48
0.2819,0.7181	-2504.54
0.3884,0.6116	-2524.57
0.3037,0.6963	-2506.20
0.3150,0.6850	-2501.82
0.2789,0.7211	-2493.23
0.3150,0.6850	-2502.60
0.3590,0.6410	-2512.68
0.3912,0.6088	-2526.93
0.3040,0.6960	-2512.00
0.2869,0.7131	-2505.36
0.2846,0.7154	-2520.15
0.3049,0.6951	-2501.27
0.3579,0.6421	-2528.36
0.3418,0.6582	-2518.59
0.3150,0.6850	-2515.03
0.2820,0.7180	-2512.01
0.2789,0.7211	-2497.98
0.3007,0.6993	-2503.63
0.3130,0.6870	-2521.35
0.3171,0.6829	-2511.16
0.3012,0.6988	-2499.43
0.3451,0.6549	-2518.00
0.2469,0.7531	-2493.61
0.3076,0.6924	-2512.76
0.3255,0.6745	-2514.25
0.2930,0.7070	-2509.69
0.2850,0.7150	-2511.83
0.3739,0.6261	-2525.52
0.2816,0.7184	-2514.85
0.3361,0.6639	-2515.14
0.3400,0.6600	-2511.27
0.3234,0.6766	-2514.23
0.2950,0.7050	-2500.06
0.3927,0.6073	-2522.19
0.2667,0.7333	-2499.13
0.2731,0.7269	-2500.94
0.3162,0.6838	-2510.38
0.3827,0.6173	-2523.81
0.2387,0.7613	-2490.70
0.3804,0.6196	-2519.32
0.2335,0.7665	-2494.64
0.2665,0.7335	-2497.12
0.3053,0.6947	-2502.93
0.3706,0.6294	-2519.11
0.2461,0.7539	-2503.74
0.3461,0.6539	-2518.02
0.2572,0.7428	-2499.56
0.2595,0.7405	-2505.73
0.3096,0.6904	-2510.32
0.3470,0.6530	-2512.35
0.2711,0.7289	-2512.87
0.3002,0.6998	-2518.01
0.2503,0.7497	-2501.12
0.2952,0.7048	-2513.12
0.2733,0.7267	-2504.85
0.3295,0.6705	-2512.17
0.2859,0.7141	-2499.88
0.3390,0.6610	-2513.22
0.2593,0.7407	-2508.89
0.2591,0.7409	-2503.66
0.2773,0.7227	-2495.10
0.3053,0.6947	-2507.87
0.2654,0.7346	-2511.40
0.3076,0.6924	-2513.57
0.2779,0.7221	-2498.93
0.2557,0.7443	-2494.31
0.2880,0.7120	-2504.43
0.2967,0.7033	-2509.60
0.3076,0.6924	-2499.77
0.3198,0.6802	-2509.69
0.3064,0.6936	-2500.52
0.2584,0.7416	-2484.73
0.2739,0.7261	-2505.79
0.3071,0.6929	-2510.32
0.2741,0.7259	-2513.57
0.3500,0.6500	-2519.99
0.3132,0.6868	-2507.20
0.3131,0.6869	-2511.13
0.2555,0.7445	-2496.46
0.3033,0.6967	-2518.67
0.3113,0.6887	-2508.74
0.3287,0.6713	-2514.29
0.3336,0.6664	-2513.70
0.2577,0.7423	-2492.13
0.2740,0.7260	-2500.91
0.3091,0.6909	-2516.76
0.3342,0.6658	-2517.16
0.3168,0.6832	-2509.62
0.3358,0.6642	-2524.68
0.2586,0.7414	-2511.07
0.2649,0.7351	-2500.22
0.3147,0.6853	-2509.58
0.3018,0.6982	-2512.88
0.3107,0.6893	-2508.73
0.3064,0.6936	-2514.41
0.2741,0.7259	-2502.86
0.2859,0.7141	-2508.12
0.3138,0.6862	-2507.22
0.2991,0.7009	-2506.16
0.3354,0.6646	-2509.66
0.3087,0.6913	-2511.13
0.2677,0.7323	-2497.09
0.3008,0.6992	-2503.64
0.2790,0.7210	-2504.62
0.2906,0.7094	-2514.23
0.3274,0.6726	-2507.07
0.2791,0.7209	-2501.77
0.3387,0.6613	-2513.21
0.2953,0.7047	-2505.29
0.2775,0.7225	-2508.50
0.3287,0.6713	-2507.86
0.3596,0.6404	-2516.77
0.2846,0.7154	-2506.33
0.3339,0.6661	-2514.40
0.3102,0.6898	-2512.72
0.3137,0.6863	-2512.70
0.3402,0.6598	-2512.61
0.3359,0.6641	-2520.59
0.2705,0.7295	-2502.00
0.2699,0.7301	-2501.04
0.3015,0.6985	-2515.41
0.3132,0.6868	-2514.27
0.3333,0.6667	-2510.23
0.2804,0.7196	-2497.04
0.3205,0.6795	-2517.23
0.2856,0.7144	-2493.46
0.2938,0.7062	-2511.43
0.3144,0.6856	-2514.25
0.3476,0.6524	-2526.25
0.2842,0.7158	-2500.80
0.3215,0.6785	-2509.74
0.2631,0.7369	-2499.27
0.2786,0.7214	-2501.78
0.2816,0.7184	-2506.42
0.3555,0.6445	-2517.14
0.3019,0.6981	-2512.04
0.3416,0.6584	-2514.65
0.3174,0.6826	-2511.93
0.2887,0.7113	-2516.15
0.2821,0.7179	-2494.26
0.3075,0.6925	-2508.70
0.3188,0.6812	-2505.87
0.3423,0.6577	-2512.06
0.3021,0.6979	-2509.53
0.2948,0.7052	-2516.62
0.2726,0.7274	-2487.21
0.3499,0.6501	-2513.79
0.3263,0.6737	-2512.81
0.3087,0.6913	-2520.00
0.2748,0.7252	-2512.54
0.2732,0.7268	-2496.04
0.3050,0.6950	-2513.63
0.2983,0.7017	-2513.85
0.3361,0.6639	-2518.54
0.2890,0.7110	-2510.72
0.3062,0.6938	-2511.14
0.2502,0.7498	-2494.55
0.2885,0.7115	-2503.53
0.2956,0.7044	-2511.36
0.3117,0.6883	-2514.29
0.2454,0.7546	-2508.31
0.3314,0.6686	-2518.55
0.2768,0.7232	-2496.06
0.2985,0.7015	-2514.70
0.2947,0.7053	-2509.65
0.3252,0.6748	-2507.68
0.2603,0.7397	-2501.48
0.3471,0.6529	-2518.68
0.2919,0.7081	-2507.95
0.2704,0.7296	-2498.04
0.2767,0.7233	-2502.78
0.3537,0.6463	-2520.67
0.2392,0.7608	-2508.02
0.3740,0.6260	-2516.76
0.3364,0.6636	-2517.87
0.2796,0.7204	-2505.55
0.2665,0.7335	-2501.16
0.3044,0.6956	-2513.65
0.2708,0.7292	-2494.07
0.3324,0.6676	-2507.39
0.3263,0.6737	-2517.16
0.2671,0.7329	-2515.27
0.2640,0.7360	-2502.30
0.3463,0.6537	-2512.31
0.3112,0.6888	-2510.33
0.3015,0.6985	-2518.78
0.3281,0.6719	-2512.13
0.2484,0.7516	-2485.79
0.2757,0.7243	-2502.81
0.3309,0.6691	-2511.51
0.3014,0.6986	-2507.01
0.3211,0.6789	-2507.49
0.3413,0.6587	-2509.37
0.2960,0.7040	-2504.42
0.3010,0.6990	-2507.01
0.3313,0.6687	-2517.15
0.3214,0.6786	-2513.48
0.3004,0.6996	-2514.62
0.3520,0.6480	-2514.54
0.2918,0.7082	-2507.96
0.2647,0.7353	-2504.31
0.3297,0.6703	-2523.53
0.3049,0.6951	-2506.21
0.2929,0.7071	-2504.41
0.3337,0.6663	-2512.32
0.2659,0.7341	-2503.22
0.3214,0.6786	-2521.70
0.3328,0.6672	-2516.46
0.2897,0.7103	-2507.11
0.2936,0.7064	-2510.55
0.3288,0.6712	-2514.29
0.3115,0.6885	-2515.88
0.3909,0.6091	-2530.91
0.2827,0.7173	-2520.35
0.3056,0.6944	-2507.05
0.2834,0.7166	-2503.58
0.2962,0.7038	-2508.75
0.3004,0.6996	-2514.62
0.3676,0.6324	-2526.52
0.3278,0.6722	-2525.77
0.2941,0.7059	-2510.54
0.2830,0.7170	-2499.87
0.3056,0.6944	-2507.05
0.3181,0.6819	-2503.55
0.3619,0.6381	-2525.99
0.3427,0.6573	-2519.25
0.3213,0.6787	-2510.48
0.2999,0.7001	-2508.70
0.3573,0.6427	-2518.40
0.2982,0.7018	-2504.44
0.3627,0.6373	-2513.59
0.3442,0.6558	-2523.13
0.3315,0.6685	-2516.45
0.3004,0.6996	-2501.93
0.3107,0.6893	-2518.30
0.2701,0.7299	-2509.97
0.3305,0.6695	-2509.38
0.3564,0.6436	-2521.32
0.3601,0.6399	-2523.13
0.2758,0.7242	-2496.05
0.3062,0.6938	-2508.69
0.2735,0.7265	-2505.81
0.3777,0.6223	-2519.10
0.3407,0.6593	-2513.95
0.3337,0.6663	-2518.54
0.2750,0.7250	-2494.11
0.2969,0.7031	-2511.33
0.2654,0.7346	-2507.32
0.3305,0.6695	-2514.32
0.3317,0.6683	-2520.65
0.3361,0.6639	-2516.50
0.3089,0.6911	-2506.30
0.3161,0.6839	-2515.01
0.2946,0.7054	-2499.17
0.2920,0.7080	-2499.98
0.3118,0.6882	-2504.79
0.3138,0.6862	-2509.57
0.3226,0.6774	-2514.97
0.3351,0.6649	-2515.80
0.2786,0.7214	-2508.44
0.2843,0.7157	-2495.26
0.3070,0.6930	-2515.21
0.3057,0.6943	-2507.05
0.2832,0.7168	-2519.37
0.3346,0.6654	-2514.42
0.2593,0.7407	-2506.80
0.2833,0.7167	-2511.01
0.2776,0.7224	-2503.72
0.3020,0.6980	-2510.36
0.2884,0.7116	-2512.56
0.3241,0.6759	-2508.36
0.2782,0.7218	-2500.84
0.2686,0.7314	-2496.07
0.2780,0.7220	-2513.25
0.3091,0.6909	-2512.73
0.2954,0.7046	-2513.98
0.3031,0.6969	-2509.52
0.2735,0.7265	-2493.11
0.2891,0.7109	-2510.72
0.3370,0.6630	-2513.81
0.3283,0.6717	-2515.00
0.2818,0.7182	-2502.67
0.3101,0.6899	-2512.72
0.2902,0.7098	-2502.63
0.2906,0.7094	-2505.31
0.3248,0.6752	-2517.90
0.3426,0.6574	-2514.03
0.2917,0.7083	-2504.41
0.2882,0.7118	-2510.76
0.2882,0.7118	-2507.14
0.2767,0.7233	-2506.62
0.3266,0.6734	-2507.03
0.3153,0.6847	-2512.69
0.3411,0.6589	-2515.29
0.3327,0.6673	-2518.55
0.3261,0.6739	-2509.18
0.2750,0.7250	-2515.44
0.2947,0.7053	-2513.14
0.3184,0.6816	-2509.66
0.3280,0.6720	-2512.13
0.3064,0.6936	-2505.42
0.3020,0.6980	-2497.80
0.2712,0.7288	-2509.89
0.2974,0.7026	-2508.73
0.3114,0.6886	-2513.50
0.2611,0.7389	-2501.44
0.2925,0.7075	-2502.64
0.2657,0.7343	-2505.27
0.2788,0.7212	-2501.78
0.3399,0.6601	-2513.26
0.2770,0.7230	-2511.40
0.2814,0.7186	-2492.37
0.3254,0.6746	-2510.60
0.2555,0.7445	-2496.45
0.2969,0.7031	-2507.88
0.3418,0.6582	-2508.10
0.2760,0.7240	-2504.73
0.2826,0.7174	-2495.21
0.3210,0.6790	-2518.72
0.2772,0.7228	-2500.85
0.3039,0.6961	-2506.20
0.3631,0.6369	-2524.86
0.3209,0.6791	-2513.47
0.2858,0.7142	-2507.21
0.3237,0.6763	-2503.92
0.3013,0.6987	-2510.37
0.2925,0.7075	-2512.36
0.3149,0.6851	-2510.36
0.3226,0.6774	-2514.97
0.2872,0.7128	-2498.99
0.3087,0.6913	-2522.41
0.3164,0.6836	-2507.30
0.2970,0.7030	-2509.60
0.3045,0.6955	-2505.38
0.3307,0.6693	-2508.69
0.3133,0.6867	-2510.34
0.2820,0.7180	-2498.00
0.3460,0.6540	-2520.57
0.3142,0.6858	-2511.13
0.2546,0.7454	-2494.35
0.3537,0.6463	-2521.27
0.3119,0.6881	-2511.12
0.2911,0.7089	-2498.18
0.3243,0.6757	-2511.30
0.3358,0.6642	-2512.40
0.2863,0.7137	-2499.89
0.3566,0.6434	-2510.70
0.2963,0.7037	-2513.94
0.2486,0.7514	-2486.89
0.3598,0.6402	-2520.24
0.3173,0.6827	-2510.40
0.3347,0.6653	-2510.30
0.3840,0.6160	-2521.52
0.3222,0.6778	-2520.17
0.3119,0.6881	-2507.96
0.3673,0.6327	-2518.91
0.3066,0.6934	-2517.67
0.3008,0.6992	-2507.01
0.3495,0.6505	-2528.68
0.2703,0.7297	-2500.03
0.2902,0.7098	-2511.57
0.3332,0.6668	-2518.54
0.3294,0.6706	-2516.44
0.3105,0.6895	-2511.92
0.3392,0.6608	-2505.23
0.2791,0.7209	-2503.67
0.3422,0.6578	-2517.29
0.3528,0.6472	-2515.19
0.3107,0.6893	-2504.75
0.3004,0.6996	-2514.62
0.3275,0.6725	-2521.47
0.3096,0.6904	-2514.33
0.3393,0.6607	-2529.89
0.3354,0.6646	-2516.49
0.2820,0.7180	-2498.93
0.3620,0.6380	-2517.48
0.3503,0.6497	-2520.61
0.3007,0.6993	-2501.94
0.3507,0.6493	-2518.77
0.3078,0.6922	-2520.05
0.3135,0.6865	-2509.56
0.3490,0.6510	-2521.84
0.3163,0.6837	-2515.78
0.2924,0.7076	-2502.64
0.3173,0.6827	-2502.74
0.2857,0.7143	-2514.55
0.3344,0.6656	-2508.90
0.2993,0.7007	-2527.43
0.3659,0.6341	-2521.03
0.2432,0.7568	-2500.65
0.3173,0.6827	-2507.34
0.2971,0.7029	-2523.38
0.3499,0.6501	-2513.17
0.2602,0.7398	-2503.58
0.3609,0.6391	-2518.57
0.2567,0.7433	-2501.72
0.3516,0.6484	-2515.73
0.3304,0.6696	-2510.79
0.2985,0.7015	-2513.84
0.2842,0.7158	-2493.41
0.3492,0.6508	-2515.62
0.3145,0.6855	-2513.47
0.3230,0.6770	-2516.45
0.3202,0.6798	-2514.97
0.3223,0.6777	-2517.94
0.3151,0.6849	-2511.14
0.3173,0.6827	-2513.46
0.2730,0.7270	-2511.72
0.2932,0.7068	-2506.17
0.3047,0.6953	-2514.46
0.3081,0.6919	-2516.79
0.3263,0.6737	-2518.61
0.2913,0.7087	-2505.30
0.2813,0.7187	-2493.30
0.2718,0.7282	-2501.96
0.2653,0.7347	-2505.29
0.2922,0.7078	-2505.29
0.3339,0.6661	-2517.85
0.2597,0.7403	-2497.33
0.2983,0.7017	-2513.85
0.2659,0.7341	-2487.99
0.3084,0.6916	-2503.86
0.3049,0.6951	-2516.93
0.3269,0.6731	-2510.65
0.2486,0.7514	-2496.84
0.3334,0.6666	-2516.47
0.3175,0.6825	-2499.69
0.2979,0.7021	-2501.01
0.3290,0.6710	-2515.72
0.3440,0.6560	-2521.85
0.2309,0.7691	-2504.53
0.2963,0.7037	-2517.40
0.3377,0.6623	-2507.78
0.2545,0.7455	-2496.50
0.3628,0.6372	-2519.79
0.3222,0.6778	-2519.43
0.2600,0.7400	-2494.18
0.3345,0.6655	-2519.92
0.3397,0.6603	-2523.88
0.2906,0.7094	-2499.06
0.3898,0.6102	-2524.64
0.3198,0.6802	-2519.50
0.2428,0.7572	-2505.24
0.3578,0.6422	-2521.93
0.2817,0.7183	-2501.74
0.3196,0.6804	-2510.44
0.3713,0.6287	-2530.22
0.3837,0.6163	-2521.02
0.2859,0.7141	-2507.21
0.3133,0.6867	-2516.62
0.2897,0.7103	-2507.11
0.3036,0.6964	-2503.70
0.3300,0.6700	-2510.06
0.3856,0.6144	-2525.36
0.2708,0.7292	-2498.03
0.3197,0.6803	-2504.41
0.2772,0.7228	-2501.81
0.3079,0.6921	-2509.51
0.3621,0.6379	-2514.66
0.3879,0.6121	-2520.89
0.3374,0.6626	-2511.12
0.3416,0.6584	-2515.31
0.2915,0.7085	-2500.86
0.3331,0.6669	-2517.85
0.3383,0.6617	-2513.19
0.3892,0.6108	-2526.41
0.3502,0.6498	-2508.25
0.3076,0.6924	-2511.13
0.2893,0.7107	-2491.84
0.3087,0.6913	-2508.71
0.3271,0.6729	-2502.01
0.3676,0.6324	-2518.38
0.3981,0.6019	-2526.37
0.3217,0.6783	-2519.45
0.3088,0.6912	-2514.35
0.3707,0.6293	-2514.35
0.3192,0.6808	-2510.44
0.3600,0.6400	-2522.55
0.3826,0.6174	-2519.02
0.3329,0.6671	-2519.94
0.3019,0.6981	-2506.18
0.3760,0.6240	-2524.04
0.3364,0.6636	-2518.54
0.3213,0.6787	-2512.73
0.4262,0.5738	-2526.01
0.3212,0.6788	-2515.72
0.2901,0.7099	-2507.10
0.3573,0.6427	-2514.88
0.3061,0.6939	-2506.24
0.2755,0.7245	-2500.88
0.3761,0.6239	-2519.48
0.3180,0.6820	-2511.94
0.2948,0.7052	-2512.26
0.3668,0.6332	-2524.34
0.3159,0.6841	-2508.06
0.3126,0.6874	-2508.76
0.3419,0.6581	-2513.35
0.3312,0.6688	-2513.63
0.2962,0.7038	-2503.56
0.3597,0.6403	-2521.97
0.2540,0.7460	-2487.91
0.3464,0.6536	-2525.65
0.3794,0.6206	-2522.68
0.3299,0.6701	-2521.40
0.2959,0.7041	-2513.95
0.3385,0.6615	-2525.93
0.2719,0.7281	-2514.76
0.3167,0.6833	-2515.77
0.3996,0.6004	-2521.57
0.2995,0.7005	-2507.01
0.3030,0.6970	-2513.68
0.3118,0.6882	-2511.92
0.2664,0.7336	-2504.21
0.3145,0.6855	-2513.47
0.3821,0.6179	-2525.23
0.2928,0.7072	-2514.11
0.3349,0.6651	-2515.80
0.2850,0.7150	-2513.67
0.2353,0.7647	-2496.83
0.2909,0.7091	-2511.54
0.3664,0.6336	-2522.69
0.2847,0.7153	-2505.40
0.3040,0.6960	-2519.45
0.2874,0.7126	-2506.26
0.2851,0.7149	-2507.23
0.3017,0.6983	-2499.46
0.3938,0.6062	-2523.14
0.2728,0.7272	-2507.81
0.3127,0.6873	-2514.28
0.2787,0.7213	-2513.20
0.3387,0.6613	-2519.23
0.3027,0.6973	-2511.19
0.3519,0.6481	-2514.53
0.2578,0.7422	-2495.30
0.3184,0.6816	-2512.70
0.2674,0.7326	-2503.14
0.2994,0.7006	-2512.11
0.3062,0.6938	-2508.69
0.3050,0.6950	-2507.04
0.2595,0.7405	-2507.82
0.3136,0.6864	-2503.30
0.2638,0.7362	-2497.19
0.3050,0.6950	-2501.27
0.3073,0.6927	-2511.14
0.3000,0.7000	-2522.26
0.2899,0.7101	-2512.48
0.3534,0.6466	-2517.64
0.3026,0.6974	-2506.18
0.3033,0.6967	-2502.03
0.3393,0.6607	-2509.90
0.2682,0.7318	-2497.08
0.2860,0.7140	-2509.95
0.3206,0.6794	-2513.47
0.2581,0.7419	-2498.45
0.2907,0.7093	-2506.20
0.2898,0.7102	-2516.07
0.2877,0.7123	-2516.22
0.2678,0.7322	-2502.12
0.4014,0.5986	-2527.75
0.2638,0.7362	-2499.24
0.3101,0.6899	-2499.93
0.2767,0.7233	-2499.90
0.3246,0.6754	-2508.38
0.2730,0.7270	-2488.21
0.3705,0.6295	-2516.46
0.2750,0.7250	-2501.86
0.3452,0.6548	-2528.88
0.2720,0.7280	-2503.92
0.3120,0.6880	-2499.26
0.2837,0.7163	-2509.13
0.3659,0.6341	-2518.83
0.3016,0.6984	-2517.93
0.3449,0.6551	-2510.93
0.2901,0.7099	-2508.00
0.2947,0.7053	-2511.39
0.2840,0.7160	-2500.80
0.3607,0.6393	-2516.84
0.3186,0.6814	-2513.46
0.3328,0.6672	-2512.98
0.2969,0.7031	-2507.01
0.2993,0.7007	-2512.96
0.2924,0.7076	-2503.53
0.3342,0.6658	-2519.92
0.2924,0.7076	-2494.69
0.3281,0.6719	-2504.25
0.3138,0.6862	-2499.40
0.3156,0.6844	-2503.40
0.2693,0.7307	-2499.06
0.3178,0.6822	-2515.75
0.2881,0.7119	-2502.62
0.3188,0.6812	-2511.95
0.3517,0.6483	-2522.47
0.3038,0.6962	-2513.66
0.2680,0.7320	-2507.14
0.3013,0.6987	-2501.12
0.2914,0.7086	-2501.75
0.3112,0.6888	-2512.71
0.3537,0.6463	-2518.25
0.2995,0.7005	-2502.76
0.2680,0.7320	-2498.09
0.3191,0.6809	-2510.43
0.3189,0.6811	-2512.71
0.3215,0.6785	-2514.22
0.3886,0.6114	-2525.48
0.3028,0.6972	-2504.52
0.3329,0.6671	-2506.73
0.2884,0.7116	-2503.53
0.3368,0.6632	-2516.51
0.2960,0.7040	-2502.69
0.3825,0.6175	-2529.08
0.2852,0.7148	-2507.23
0.2786,0.7214	-2514.15
0.2725,0.7275	-2514.71
0.3536,0.6464	-2518.25
0.3095,0.6905	-2510.32
0.3981,0.6019	-2525.55
0.2718,0.7282	-2520.69
0.2788,0.7212	-2500.83
0.3078,0.6922	-2511.13
0.3398,0.6602	-2516.57
0.2464,0.7536	-2488.06
0.3758,0.6242	-2518.45
0.3408,0.6592	-2510.00
0.2360,0.7640	-2495.58
0.3124,0.6876	-2514.28
0.3250,0.6750	-2518.63
0.2595,0.7405	-2496.29
0.3305,0.6695	-2513.62
0.3444,0.6556	-2514.12
0.2441,0.7559	-2505.09
0.3036,0.6964	-2507.86
0.3051,0.6949	-2512.80
0.2652,0.7348	-2500.20
0.3590,0.6410	-2517.89
0.3478,0.6522	-2521.21
0.2726,0.7274	-2506.84
0.3253,0.6747	-2517.90
0.3344,0.6656	-2519.92
0.3200,0.6800	-2514.98
0.3421,0.6579	-2527.75
0.3472,0.6528	-2512.37
0.2469,0.7531	-2484.70
0.3169,0.6831	-2510.39
0.3500,0.6500	-2522.46
0.2807,0.7193	-2506.45
0.3234,0.6766	-2506.85
0.3337,0.6663	-2523.38
0.2501,0.7499	-2492.36
0.2981,0.7019	-2507.86
0.3539,0.6461	-2517.06
0.2604,0.7396	-2504.61
0.3138,0.6862	-2511.91
0.3442,0.6558	-2518.62
0.2899,0.7101	-2504.42
0.2848,0.7152	-2498.03
0.3517,0.6483	-2513.29
0.2945,0.7055	-2510.53
0.3057,0.6943	-2511.97
0.2875,0.7125	-2502.62
0.2898,0.7102	-2509.80
0.3110,0.6890	-2510.33
0.3291,0.6709	-2519.28
0.2682,0.7318	-2511.14
0.2852,0.7148	-2506.31
0.2772,0.7228	-2512.35
0.2811,0.7189	-2497.99
0.2939,0.7061	-2504.41
0.3169,0.6831	-2509.62
0.2520,0.7480	-2499.90
0.3035,0.6965	-2507.85
0.2882,0.7118	-2510.76
0.2959,0.7041	-2513.96
0.3159,0.6841	-2514.24
0.2878,0.7122	-2510.78
0.2352,0.7648	-2498.02
0.2866,0.7134	-2504.45
0.2860,0.7140	-2500.80
0.2688,0.7312	-2505.07
0.2939,0.7061	-2516.68
0.2900,0.7100	-2517.85
0.2511,0.7489	-2501.06
0.2812,0.7188	-2498.93
0.2645,0.7355	-2497.17
0.3046,0.6954	-2512.81
0.3039,0.6961	-2504.54
0.3144,0.6856	-2514.25
0.2800,0.7200	-2498.93
0.3067,0.6933	-2509.51
0.2798,0.7202	-2491.36
0.3496,0.6504	-2516.88
0.2919,0.7081	-2503.52
0.3165,0.6835	-2505.77
0.2772,0.7228	-2495.10
0.3179,0.6821	-2501.25
0.2873,0.7127	-2505.35
0.3539,0.6461	-2520.67
0.2836,0.7164	-2510.07
0.2907,0.7093	-2507.98
0.3100,0.6900	-2504.72
0.3217,0.6783	-2515.72
0.2911,0.7089	-2518.65
0.3133,0.6867	-2505.64
0.2816,0.7184	-2507.36
0.3001,0.6999	-2507.85
0.2827,0.7173	-2507.32
0.2946,0.7054	-2508.78
0.3244,0.6756	-2522.31
0.3248,0.6752	-2504.00
0.3068,0.6932	-2508.69
0.3113,0.6887	-2514.30
0.3463,0.6537	-2519.30
0.3206,0.6794	-2508.97
0.3265,0.6735	-2504.12
0.3288,0.6712	-2512.15
0.3169,0.6831	-2508.85
0.3313,0.6687	-2518.55
0.3073,0.6927	-2507.88
0.3048,0.6952	-2511.16
0.3435,0.6565	-2514.08
0.3230,0.6770	-2506.09
0.2927,0.7073	-2502.64
0.3365,0.6635	-2514.47
0.3139,0.6861	-2498.62
0.2928,0.7072	-2511.46
0.3524,0.6476	-2514.56
0.3108,0.6892	-2507.14
0.2553,0.7447	-2503.96
0.3287,0.6713	-2512.86
0.2936,0.7064	-2509.68
0.2742,0.7258	-2505.78
0.3578,0.6422	-2513.16
0.3379,0.6621	-2511.82
0.2542,0.7458	-2488.98
0.3182,0.6818	-2512.70
0.3211,0.6789	-2508.23
0.2671,0.7329	-2502.15
0.3525,0.6475	-2520.04
0.3619,0.6381	-2523.72
0.2630,0.7370	-2499.27
0.3054,0.6946	-2516.08
0.2943,0.7057	-2515.78
0.2605,0.7395	-2504.61
0.3166,0.6834	-2508.85
0.3474,0.6526	-2519.95
0.2579,0.7421	-2507.97
0.3126,0.6874	-2504.03
0.2676,0.7324	-2497.09
0.3081,0.6919	-2509.51
0.3466,0.6534	-2511.69
0.3316,0.6684	-2517.15
0.2441,0.7559	-2508.48
0.3285,0.6715	-2514.29
0.2577,0.7423	-2510.11
0.2990,0.7010	-2506.15
0.3128,0.6872	-2504.04
0.3283,0.6717	-2514.28
0.2272,0.7728	-2505.12
0.3615,0.6385	-2511.20
0.2524,0.7476	-2499.87
0.2767,0.7233	-2500.86
0.2941,0.7059	-2509.66
0.3309,0.6691	-2510.11
0.2393,0.7607	-2496.44
0.3687,0.6313	-2521.68
0.2632,0.7368	-2504.41
0.2863,0.7137	-2498.97
0.2654,0.7346	-2508.34
0.3548,0.6452	-2515.31
0.2589,0.7411	-2499.47
0.3769,0.6231	-2523.06
0.2767,0.7233	-2500.86
0.3014,0.6986	-2507.85
0.2750,0.7250	-2498.95
0.3222,0.6778	-2512.74
0.2804,0.7196	-2504.58
0.3523,0.6477	-2516.99
0.2673,0.7327	-2507.18
0.3257,0.6743	-2514.98
0.2393,0.7607	-2501.06
0.3298,0.6702	-2512.89
0.3137,0.6863	-2512.70
0.3259,0.6741	-2512.80
0.2457,0.7543	-2492.57
0.3232,0.6768	-2509.06
0.2558,0.7442	-2496.44
0.3352,0.6648	-2514.43
0.3190,0.6810	-2509.67
0.2879,0.7121	-2501.72
0.2529,0.7471	-2499.84
0.3263,0.6737	-2512.81
0.2825,0.7175	-2496.14
0.3285,0.6715	-2514.29
0.3144,0.6856	-2514.25
0.2753,0.7247	-2507.66
0.2812,0.7188	-2503.62
0.3367,0.6633	-2517.19
0.2510,0.7490	-2493.41
0.3257,0.6743	-2518.62
0.3134,0.6866	-2511.91
0.2887,0.7113	-2497.21
0.3555,0.6445	-2512.38
0.3303,0.6697	-2514.32
0.2429,0.7571	-2490.45
0.3565,0.6435	-2514.82
0.2884,0.7116	-2509.85
0.3316,0.6684	-2512.94
0.3237,0.6763	-2506.13
0.3314,0.6686	-2515.04
0.2645,0.7355	-2507.40
0.3491,0.6509	-2513.74
0.3251,0.6749	-2518.63
0.3171,0.6829	-2521.14
0.3496,0.6504	-2522.46
0.3231,0.6769	-2516.45
0.2756,0.7244	-2492.18
0.3358,0.6642	-2513.09
0.3493,0.6507	-2517.49
0.3384,0.6616	-2517.21
0.3344,0.6656	-2521.98
0.3737,0.6263	-2517.25
0.3063,0.6937	-2508.69
0.3540,0.6460	-2512.26
0.3263,0.6737	-2510.63
0.3149,0.6851	-2505.70
0.3210,0.6790	-2520.21
0.3725,0.6275	-2523.93
0.3614,0.6386	-2514.04
0.3837,0.6163	-2528.60
0.3007,0.6993	-2509.54
0.3202,0.6798	-2502.93
0.3587,0.6413	-2527.18
0.3171,0.6829	-2508.86
0.3458,0.6542	-2517.38
0.3446,0.6554	-2521.20
0.3173,0.6827	-2518.06
0.3230,0.6770	-2501.65
0.3024,0.6976	-2507.02
0.2754,0.7246	-2510.56
0.3468,0.6532	-2519.94
0.3040,0.6960	-2505.37
0.3198,0.6802	-2509.69
0.2982,0.7018	-2505.30
0.3495,0.6505	-2510.04
0.2824,0.7176	-2507.33
0.3124,0.6876	-2514.28
0.3047,0.6953	-2510.34
0.3463,0.6537	-2517.39
0.3611,0.6389	-2522.00
0.3746,0.6254	-2530.14
0.2963,0.7037	-2512.21
0.3000,0.7000	-2504.47
0.2623,0.7377	-2493.10
0.3112,0.6888	-2516.69
0.3515,0.6485	-2517.56
0.3503,0.6497	-2513.20
0.3567,0.6433	-2516.61
0.2991,0.7009	-2512.12
0.2884,0.7116	-2512.56
0.3497,0.6503	-2513.16
0.3629,0.6371	-2524.86
0.3775,0.6225	-2521.59
0.3110,0.6890	-2514.31
0.3079,0.6921	-2507.89
0.3198,0.6802	-2509.69
0.2814,0.7186	-2506.43
0.3681,0.6319	-2526.52
0.3065,0.6935	-2512.77
0.3344,0.6656	-2513.04
0.2897,0.7103	-2507.11
0.3310,0.6690	-2513.63
0.2568,0.7432	-2508.09
0.3401,0.6599	-2511.27
0.3126,0.6874	-2511.13
0.3382,0.6618	-2515.87
0.3118,0.6882	-2506.37
0.3206,0.6794	-2520.98
0.2836,0.7164	-2511.91
0.3365,0.6635	-2513.11
0.3205,0.6795	-2509.71
0.3506,0.6494	-2511.37
0.3395,0.6605	-2517.90
0.3268,0.6732	-2506.31
0.2491,0.7509	-2499.02
0.3609,0.6391	-2517.42
0.3131,0.6869	-2513.49
0.3222,0.6778	-2511.25
0.2636,0.7364	-2493.08
0.2950,0.7050	-2507.90
0.2963,0.7037	-2509.61
0.3891,0.6109	-2522.35
0.2715,0.7285	-2507.89
0.3458,0.6542	-2516.10
0.2600,0.7400	-2502.55
0.2839,0.7161	-2500.80
0.2557,0.7443	-2500.72
0.3931,0.6069	-2525.69
0.2632,0.7368	-2498.23
0.3398,0.6602	-2513.25
0.2497,0.7503	-2491.27
0.2962,0.7038	-2519.13
0.2983,0.7017	-2499.31
0.3670,0.6330	-2519.44
0.2772,0.7228	-2513.31
0.3180,0.6820	-2502.02
0.2797,0.7203	-2506.49
0.3240,0.6760	-2503.21
0.3029,0.6971	-2508.69
0.3401,0.6599	-2513.93
0.2558,0.7442	-2498.57
0.3162,0.6838	-2513.47
0.2845,0.7155	-2499.87
0.3178,0.6822	-2505.06
0.3300,0.6700	-2517.15
0.2850,0.7150	-2504.48
0.2691,0.7309	-2494.07
0.2907,0.7093	-2517.79
0.3152,0.6848	-2511.92
0.3279,0.6721	-2514.28
0.3555,0.6445	-2518.92
0.2785,0.7215	-2496.07
0.3073,0.6927	-2503.82
0.2750,0.7250	-2500.89
0.3289,0.6711	-2507.87
0.3246,0.6754	-2511.31
0.3218,0.6782	-2514.97
0.2697,0.7303	-2499.05
0.3219,0.6781	-2501.56
0.2478,0.7522	-2496.90
0.3051,0.6949	-2510.33
0.3290,0.6710	-2520.00
0.3051,0.6949	-2503.75
0.3081,0.6919	-2516.79
0.3447,0.6553	-2517.35
0.2509,0.7491	-2490.14
0.3478,0.6522	-2504.86
0.3242,0.6758	-2517.18
0.3124,0.6876	-2519.02
0.2967,0.7033	-2509.60
0.3369,0.6631	-2517.19
0.3042,0.6958	-2508.69
0.3312,0.6688	-2520.66
0.3504,0.6496	-2520.61
0.3134,0.6866	-2514.27
0.2529,0.7471	-2496.58
0.2941,0.7059	-2504.41
0.3105,0.6895	-2500.75
0.3223,0.6777	-2509.77
0.3235,0.6765	-2524.56
0.3053,0.6947	-2503.75
0.2911,0.7089	-2495.51
0.3421,0.6579	-2515.98
0.3344,0.6656	-2521.29
0.2978,0.7022	-2511.30
0.3031,0.6969	-2513.68
0.2991,0.7009	-2505.30
0.2664,0.7336	-2504.21
0.3274,0.6726	-2510.67
0.2959,0.7041	-2503.55
0.2753,0.7247	-2508.63
0.3642,0.6358	-2520.96
0.2607,0.7393	-2498.34
0.2677,0.7323	-2501.12
0.3125,0.6875	-2517.43
0.2924,0.7076	-2505.29
0.2640,0.7360	-2495.13
0.3079,0.6921	-2515.99
0.2636,0.7364	-2496.17
0.3254,0.6746	-2508.42
0.2947,0.7053	-2502.67
0.2516,0.7484	-2511.92
0.2558,0.7442	-2504.99
0.2761,0.7239	-2493.16
0.2780,0.7220	-2497.98
0.3242,0.6758	-2509.83
0.3015,0.6985	-2512.89
0.2870,0.7130	-2499.90
0.2476,0.7524	-2510.25
0.2967,0.7033	-2505.29
0.3025,0.6975	-2510.36
0.3293,0.6707	-2511.45
0.3218,0.6782	-2510.50
0.3001,0.6999	-2512.09
0.2769,0.7231	-2494.14
0.2894,0.7106	-2505.32
0.3237,0.6763	-2517.18
0.3342,0.6658	-2510.96
0.3113,0.6887	-2509.54
0.2820,0.7180	-2510.15
0.3082,0.6918	-2512.75
0.3372,0.6628	-2511.79
0.3047,0.6953	-2509.51
0.3056,0.6944	-2506.23
0.2769,0.7231	-2513.33
0.2850,0.7150	-2508.16
0.3001,0.6999	-2511.24
0.3075,0.6925	-2506.26
0.2987,0.7013	-2507.01
0.3077,0.6923	-2508.70
0.2889,0.7111	-2499.92
0.3259,0.6741	-2514.98
0.2921,0.7079	-2497.33
0.2876,0.7124	-2508.07
0.3143,0.6857	-2520.50
0.3009,0.6991	-2505.32
0.2954,0.7046	-2510.50
0.3052,0.6948	-2504.57
0.2948,0.7052	-2497.44
0.3126,0.6874	-2504.82
0.3386,0.6614	-2517.89
0.3178,0.6822	-2515.76
0.3354,0.6646	-2514.44
0.2910,0.7090	-2506.19
0.2929,0.7071	-2506.17
0.3875,0.6125	-2525.44
0.2959,0.7041	-2501.82
0.3423,0.6577	-2512.06
0.3194,0.6806	-2505.90
0.2874,0.7126	-2496.27
0.2851,0.7149	-2505.39
0.3657,0.6343	-2516.62
0.3089,0.6911	-2504.68
0.3461,0.6539	-2514.84
0.3220,0.6780	-2514.23
0.2882,0.7118	-2506.24
0.2851,0.7149	-2509.99
0.2955,0.7045	-2500.07
0.2879,0.7121	-2513.49
0.3429,0.6571	-2512.75
0.2957,0.7043	-2502.68
0.3647,0.6353	-2517.10
0.3444,0.6556	-2513.48
0.2848,0.7152	-2510.92
0.3126,0.6874	-2515.85
0.3264,0.6736	-2521.51
0.3192,0.6808	-2508.16
0.3365,0.6635	-2519.22
0.3362,0.6638	-2514.46
0.2826,0.7174	-2505.46
0.3086,0.6914	-2506.29
0.3157,0.6843	-2511.15
0.3419,0.6581	-2519.90
0.3064,0.6936	-2510.33
0.3490,0.6510	-2518.72
0.3145,0.6855	-2511.14
0.3100,0.6900	-2507.92
0.2722,0.7278	-2513.75
0.2929,0.7071	-2506.17
0.3185,0.6815	-2507.38
0.3753,0.6247	-2519.94
0.3210,0.6790	-2513.47
0.2931,0.7069	-2499.13
0.2784,0.7216	-2499.88
0.3233,0.6767	-2512.02
0.2926,0.7074	-2515.00
0.3458,0.6542	-2518.02
0.3006,0.6994	-2501.94
0.2693,0.7307	-2494.07
0.3042,0.6958	-2503.72
0.3495,0.6505	-2510.04
0.3064,0.6936	-2508.69
0.3316,0.6684	-2517.15
0.3232,0.6768	-2512.75
0.2605,0.7395	-2504.60
0.3166,0.6834	-2511.16
0.3318,0.6682	-2515.75
0.2799,0.7201	-2508.37
0.3339,0.6661	-2513.71
0.3211,0.6789	-2517.22
0.2737,0.7263	-2498.00
0.3290,0.6710	-2514.30
0.3151,0.6849	-2511.14
0.3161,0.6839	-2502.66
0.3378,0.6622	-2516.53
0.2664,0.7336	-2504.21
0.2808,0.7192	-2505.51
0.3174,0.6826	-2515.00
0.3155,0.6845	-2509.60
0.3042,0.6958	-2512.82
0.3347,0.6653	-2511.67
0.2785,0.7215	-2502.74
0.3177,0.6823	-2507.35
0.2817,0.7183	-2515.78
0.3185,0.6815	-2506.62
0.2807,0.7193	-2502.69
0.3191,0.6809	-2515.74
0.3270,0.6730	-2514.27
0.2882,0.7118	-2512.57
0.2954,0.7046	-2509.63
0.3568,0.6432	-2517.79
0.2630,0.7370	-2502.36
0.3089,0.6911	-2516.76
0.2808,0.7192	-2510.21
0.3147,0.6853	-2518.14
0.3111,0.6889	-2513.51
0.3466,0.6534	-2518.67
0.2879,0.7121	-2498.10
0.2846,0.7154	-2510.94
0.2793,0.7207	-2492.29
0.2999,0.7001	-2514.64
0.3455,0.6545	-2511.62
0.3718,0.6282	-2518.14
0.2979,0.7021	-2509.58
0.2801,0.7199	-2505.53
0.2957,0.7043	-2508.76
0.2940,0.7060	-2507.04
0.3401,0.6599	-2518.57
0.3345,0.6655	-2520.61
0.2617,0.7383	-2510.74
0.3491,0.6509	-2524.96
0.2973,0.7027	-2501.85
0.3008,0.6992	-2507.85
0.3290,0.6710	-2509.31
0.3315,0.6685	-2514.34
0.2838,0.7162	-2507.27
0.3452,0.6548	-2509.03
0.3007,0.6993	-2514.61
0.3158,0.6842	-2508.83
0.3031,0.6969	-2502.86
0.3576,0.6424	-2524.86
0.3169,0.6831	-2500.41
0.3162,0.6838	-2510.38
0.3192,0.6808	-2515.74
0.3368,0.6632	-2525.32
0.2800,0.7200	-2500.81
0.3383,0.6617	-2515.20
0.2787,0.7213	-2508.44
0.3111,0.6889	-2503.17
0.3127,0.6873	-2511.13
0.3630,0.6370	-2514.17
0.2735,0.7265	-2505.81
0.3044,0.6956	-2510.34
0.2724,0.7276	-2499.98
0.2928,0.7072	-2510.58
0.3223,0.6777	-2507.54
0.3049,0.6951	-2518.58
0.3175,0.6825	-2506.58
0.2946,0.7054	-2513.15
0.2671,0.7329	-2504.17
0.3294,0.6706	-2515.72
0.2856,0.7144	-2506.30
0.2984,0.7016	-2494.18
0.3340,0.6660	-2512.33
0.2927,0.7073	-2502.64
0.2917,0.7083	-2511.51
0.3653,0.6347	-2517.69
0.2580,0.7420	-2526.98
0.2932,0.7068	-2516.72
0.3597,0.6403	-2524.85
0.3172,0.6828	-2511.93
0.3003,0.6997	-2504.47
0.3794,0.6206	-2521.70
0.2700,0.7300	-2496.06
0.2804,0.7196	-2505.52
0.3343,0.6657	-2512.35
0.2770,0.7230	-2497.98
0.3321,0.6679	-2509.47
0.3892,0.6108	-2525.96
0.3208,0.6792	-2521.72
0.3342,0.6658	-2524.05
0.2848,0.7152	-2505.40
0.2995,0.7005	-2516.35
0.3126,0.6874	-2512.70
0.3367,0.6633	-2527.36
0.2968,0.7032	-2502.70
0.3444,0.6556	-2514.12
0.3025,0.6975	-2511.19
0.3222,0.6778	-2513.48
0.2636,0.7364	-2498.22
0.3407,0.6593	-2511.97
0.3479,0.6521	-2512.41
0.3611,0.6389	-2513.44
0.3029,0.6971	-2500.35
0.2816,0.7184	-2500.80
0.2572,0.7428	-2488.96
0.3154,0.6846	-2519.67
0.3461,0.6539	-2524.38
0.4144,0.5856	-2533.29
0.3322,0.6678	-2512.27
0.2998,0.7002	-2505.31
0.2910,0.7090	-2488.38
0.3156,0.6844	-2508.82
0.2961,0.7039	-2511.35
0.3922,0.6078	-2522.15
0.3653,0.6347	-2520.45
0.2992,0.7008	-2507.86
0.2817,0.7183	-2507.36
0.3127,0.6873	-2509.55
0.2850,0.7150	-2518.28
0.3994,0.6006	-2525.22
0.3694,0.6306	-2520.11
0.3178,0.6822	-2514.99
0.2813,0.7187	-2501.74
0.3035,0.6965	-2505.36
0.3104,0.6896	-2501.54
0.3737,0.6263	-2526.03
0.3360,0.6640	-2515.14
0.3090,0.6910	-2498.25
0.2731,0.7269	-2508.77
0.3184,0.6816	-2508.90
0.2924,0.7076	-2502.64
0.3015,0.6985	-2501.97
0.3469,0.6531	-2514.88
0.3476,0.6524	-2523.73
0.3253,0.6747	-2513.52
0.2924,0.7076	-2511.48
0.2923,0.7077	-2509.71
0.2872,0.7128	-2514.44
0.3147,0.6853	-2507.25
0.3153,0.6847	-2517.35
0.3153,0.6847	-2508.04
0.2954,0.7046	-2513.98
0.2937,0.7063	-2518.45
0.2943,0.7057	-2506.16
0.3208,0.6792	-2513.47
0.3358,0.6642	-2518.54
0.2901,0.7099	-2499.05
0.3287,0.6713	-2512.15
0.2728,0.7272	-2512.71
0.2772,0.7228	-2496.06
0.3012,0.6988	-2505.33
0.3205,0.6795	-2505.95
0.2931,0.7069	-2499.13
0.3299,0.6701	-2507.93
0.2937,0.7063	-2504.41
0.2737,0.7263	-2498.97
0.2758,0.7242	-2499.91
0.3095,0.6905	-2515.94
0.3079,0.6921	-2510.32
0.2733,0.7267	-2505.82
0.2929,0.7071	-2505.29
0.3121,0.6879	-2507.17
0.2987,0.7013	-2514.69
0.3394,0.6606	-2515.23
0.2928,0.7072	-2512.34
0.2740,0.7260	-2489.22
0.3211,0.6789	-2504.49
0.2853,0.7147	-2511.82
0.2797,0.7203	-2505.55
0.3209,0.6791	-2511.22
0.2435,0.7565	-2511.96
0.3121,0.6879	-2511.92
0.2986,0.7014	-2508.72
0.3574,0.6426	-2514.29
0.2796,0.7204	-2510.28
0.2977,0.7023	-2507.87
0.2608,0.7392	-2504.58
0.3175,0.6825	-2515.76
0.2871,0.7129	-2512.63
0.3167,0.6833	-2505.77
0.2697,0.7303	-2506.02
0.3039,0.6961	-2503.71
0.3115,0.6885	-2512.71
0.3567,0.6433	-2519.55
0.3097,0.6903	-2516.73
0.2943,0.7057	-2512.28
0.3112,0.6888	-2519.07
0.3039,0.6961	-2502.88
0.3084,0.6916	-2507.90
0.3285,0.6715	-2517.86
0.2931,0.7069	-2507.93
0.3075,0.6925	-2503.83
0.3135,0.6865	-2504.86
0.3023,0.6977	-2504.51
0.2949,0.7051	-2505.29
0.2617,0.7383	-2501.40
0.2780,0.7220	-2495.11
0.2837,0.7163	-2500.80
0.2877,0.7123	-2506.25
0.2783,0.7217	-2493.21
0.3192,0.6808	-2516.50
0.2608,0.7392	-2516.04
0.2583,0.7417	-2500.56
0.2932,0.7068	-2499.13
0.2933,0.7067	-2503.53
0.2846,0.7154	-2489.73
0.2933,0.7067	-2505.29
0.2769,0.7231	-2495.10
0.2644,0.7356	-2494.10
0.3328,0.6672	-2507.42
0.2797,0.7203	-2495.14
0.2951,0.7049	-2515.73
0.2831,0.7169	-2500.80
0.2334,0.7666	-2498.22
0.3038,0.6962	-2508.69
0.3426,0.6574	-2513.39
0.2702,0.7298	-2503.01
0.3277,0.6723	-2517.15
0.2786,0.7214	-2484.66
0.2410,0.7590	-2484.82
0.3198,0.6802	-2516.49
0.3129,0.6871	-2514.27
0.2696,0.7304	-2511.01
0.2714,0.7286	-2507.90
0.2840,0.7160	-2515.60
0.2207,0.7793	-2479.77
0.3060,0.6940	-2506.23
0.3194,0.6806	-2505.90
0.2710,0.7290	-2503.97
0.2839,0.7161	-2510.98
0.2840,0.7160	-2511.89
0.2486,0.7514	-2502.38
0.2473,0.7527	-2494.71
0.2904,0.7096	-2499.95
0.2561,0.7439	-2503.89
0.3141,0.6859	-2515.04
0.3074,0.6926	-2503.01
0.2884,0.7116	-2505.33
0.2805,0.7195	-2517.77
0.2831,0.7169	-2499.87
0.2540,0.7460	-2505.15
0.3960,0.6040	-2527.11
0.3140,0.6860	-2504.88
0.3193,0.6807	-2514.22
0.2850,0.7150	-2508.16
0.3328,0.6672	-2511.59
0.2572,0.7428	-2499.56
0.3681,0.6319	-2523.28
0.2745,0.7255	-2507.71
0.3542,0.6458	-2515.87
0.3268,0.6732	-2512.82
0.3125,0.6875	-2506.40
0.3062,0.6938	-2495.60
0.3323,0.6677	-2526.92
0.2639,0.7361	-2497.18
0.3496,0.6504	-2513.15
0.3402,0.6598	-2511.94
0.3084,0.6916	-2517.59
0.3042,0.6958	-2507.03
0.3760,0.6240	-2520.49
0.2818,0.7182	-2503.61
0.3090,0.6910	-2503.08
0.3551,0.6449	-2521.89
0.3117,0.6883	-2504.79
0.3492,0.6508	-2518.11
0.3530,0.6470	-2518.84
0.3405,0.6595	-2513.29
0.2768,0.7232	-2503.74
0.3631,0.6369	-2515.86
0.3179,0.6821	-2504.30
0.3275,0.6725	-2516.43
0.3288,0.6712	-2516.43
