#isoforms=['ENSG00000110080.SE.2.A.up_ENSG00000110080.SE.2.A.SE1_ENSG00000110080.SE.2.A.dn','ENSG00000110080.SE.2.B.up_ENSG00000110080.SE.2.B.dn']	exon_lens=('ENSG00000110080.SE.2.A.up',61),('ENSG00000110080.SE.2.A.SE1',96),('ENSG00000110080.SE.2.A.dn',190),('ENSG00000110080.SE.2.B.up',61),('ENSG00000110080.SE.2.B.dn',190)	iters=5000	burn_in=500	lag=10	percent_accept=95.75	proposal_type=drift	counts=(0,0):2892,(1,0):1908,(1,1):540	assigned_counts=0:2448	chrom=chr11	strand=+	mRNA_starts=126407574,126407574	mRNA_ends=126408496,126408496
sampled_psi	log_score
0.9982,0.0018	-12960.59
0.9930,0.0070	-12969.41
0.9949,0.0051	-12962.69
0.9978,0.0022	-12960.69
0.9919,0.0081	-12960.79
0.9973,0.0027	-12949.12
0.9986,0.0014	-12954.00
0.9934,0.0066	-12979.09
0.9956,0.0044	-12956.71
0.9982,0.0018	-12947.98
0.9908,0.0092	-12980.74
0.9966,0.0034	-12955.66
0.9986,0.0014	-12954.04
0.9953,0.0047	-12973.05
0.9957,0.0043	-12956.58
0.9984,0.0016	-12954.15
0.9917,0.0083	-12980.15
0.9962,0.0038	-12956.04
0.9986,0.0014	-12947.42
0.9955,0.0045	-12956.72
0.9962,0.0038	-12956.05
0.9983,0.0017	-12947.87
0.9930,0.0070	-12969.45
0.9965,0.0035	-12955.71
0.9985,0.0015	-12947.55
0.9949,0.0051	-12973.20
0.9960,0.0040	-12961.76
0.9979,0.0021	-12948.29
0.9943,0.0057	-12963.17
0.9960,0.0040	-12956.24
0.9989,0.0011	-12953.88
0.9947,0.0053	-12962.83
0.9955,0.0045	-12962.13
0.9987,0.0013	-12953.98
0.9935,0.0065	-12963.97
0.9946,0.0054	-12957.69
0.9990,0.0010	-12946.98
0.9953,0.0047	-12983.76
0.9941,0.0059	-12958.29
0.9986,0.0014	-12947.40
0.9942,0.0058	-12968.45
0.9942,0.0058	-12968.44
0.9990,0.0010	-12946.92
0.9934,0.0066	-12969.09
0.9949,0.0051	-12983.77
0.9988,0.0012	-12947.25
0.9934,0.0066	-12964.10
0.9940,0.0060	-12973.74
0.9989,0.0011	-12953.89
0.9936,0.0064	-12978.99
0.9950,0.0050	-12983.76
0.9987,0.0013	-12953.95
0.9950,0.0050	-12967.88
0.9933,0.0067	-12969.18
0.9990,0.0010	-12967.61
0.9937,0.0063	-12963.74
0.9955,0.0045	-12967.55
0.9986,0.0014	-12967.14
0.9948,0.0052	-12968.01
0.9927,0.0073	-12964.72
0.9991,0.0009	-12960.82
0.9950,0.0050	-12957.35
0.9954,0.0046	-12978.39
0.9982,0.0018	-12954.24
0.9940,0.0060	-12958.39
0.9933,0.0067	-12969.13
0.9991,0.0009	-12953.83
0.9963,0.0037	-12972.74
0.9949,0.0051	-12967.96
0.9982,0.0018	-12954.29
0.9940,0.0060	-12968.64
0.9926,0.0074	-12969.79
0.9991,0.0009	-12953.82
0.9956,0.0044	-12951.30
0.9959,0.0041	-12967.35
0.9981,0.0019	-12948.13
0.9943,0.0057	-12978.72
0.9938,0.0062	-12968.80
0.9993,0.0007	-12953.82
0.9953,0.0047	-12967.70
0.9959,0.0041	-12961.88
0.9977,0.0023	-12966.80
0.9958,0.0042	-12978.33
0.9944,0.0056	-12978.66
0.9993,0.0007	-12946.56
0.9947,0.0053	-12968.10
0.9948,0.0052	-12978.52
0.9978,0.0022	-12954.56
0.9963,0.0037	-12961.51
0.9945,0.0055	-12968.26
0.9993,0.0007	-12946.61
0.9943,0.0057	-12963.25
0.9950,0.0050	-12962.60
0.9978,0.0022	-12966.80
0.9965,0.0035	-12961.41
0.9944,0.0056	-12968.29
0.9994,0.0006	-12953.84
0.9953,0.0047	-12956.99
0.9955,0.0045	-12956.79
0.9982,0.0018	-12948.01
0.9967,0.0033	-12966.99
0.9925,0.0075	-12979.61
0.9993,0.0007	-12946.52
0.9970,0.0030	-12961.07
0.9951,0.0049	-12973.12
0.9981,0.0019	-12954.37
0.9954,0.0046	-12956.85
0.9943,0.0057	-12973.56
0.9993,0.0007	-12946.51
0.9963,0.0037	-12961.52
0.9955,0.0045	-12967.59
0.9981,0.0019	-12960.60
0.9958,0.0042	-12967.40
0.9928,0.0072	-12969.59
0.9992,0.0008	-12953.82
0.9960,0.0040	-12967.29
0.9962,0.0038	-12967.20
0.9981,0.0019	-12966.87
0.9962,0.0038	-12967.20
0.9907,0.0093	-12980.80
0.9991,0.0009	-12960.80
0.9955,0.0045	-12962.13
0.9963,0.0037	-12961.57
0.9976,0.0024	-12978.88
0.9961,0.0039	-12956.13
0.9904,0.0096	-12976.37
0.9992,0.0008	-12946.65
0.9964,0.0036	-12950.28
0.9963,0.0037	-12978.33
0.9979,0.0021	-12948.32
0.9962,0.0038	-12967.20
0.9917,0.0083	-12984.88
0.9993,0.0007	-12968.23
0.9949,0.0051	-12962.65
0.9956,0.0044	-12956.66
0.9980,0.0020	-12948.17
0.9958,0.0042	-12961.91
0.9918,0.0082	-12956.08
0.9993,0.0007	-12946.51
0.9947,0.0053	-12962.86
0.9952,0.0048	-12967.72
0.9980,0.0020	-12960.63
0.9961,0.0039	-12972.79
0.9907,0.0093	-12990.18
0.9992,0.0008	-12946.69
0.9937,0.0063	-12958.78
0.9952,0.0048	-12962.45
0.9976,0.0024	-12960.79
0.9954,0.0046	-12972.99
0.9904,0.0096	-12985.69
0.9993,0.0007	-12953.82
0.9940,0.0060	-12978.82
0.9943,0.0057	-12963.26
0.9975,0.0025	-12972.78
0.9952,0.0048	-12957.13
0.9896,0.0104	-12981.66
0.9994,0.0006	-12946.49
0.9936,0.0064	-12963.91
0.9941,0.0059	-12958.30
0.9978,0.0022	-12954.54
0.9950,0.0050	-12978.47
0.9888,0.0112	-12968.86
0.9993,0.0007	-12946.52
0.9953,0.0047	-12956.96
0.9941,0.0059	-12968.51
0.9981,0.0019	-12948.10
0.9957,0.0043	-12951.06
0.9893,0.0107	-12977.34
0.9994,0.0006	-12961.35
0.9959,0.0041	-12972.84
0.9939,0.0061	-12973.76
0.9977,0.0023	-12966.80
0.9952,0.0048	-12962.42
0.9896,0.0104	-12986.23
0.9993,0.0007	-12946.51
0.9962,0.0038	-12956.07
0.9949,0.0051	-12967.93
0.9977,0.0023	-12960.74
0.9947,0.0053	-12957.64
0.9905,0.0095	-12985.61
0.9993,0.0007	-12946.58
0.9968,0.0032	-12966.94
0.9946,0.0054	-12968.16
0.9965,0.0035	-12961.39
0.9948,0.0052	-12957.49
0.9917,0.0083	-12984.93
0.9993,0.0007	-12946.55
0.9979,0.0021	-12954.50
0.9941,0.0059	-12968.56
0.9974,0.0026	-12954.89
0.9955,0.0045	-12967.56
0.9901,0.0099	-12990.48
0.9991,0.0009	-12953.82
0.9981,0.0019	-12954.34
0.9945,0.0055	-12952.65
0.9970,0.0030	-12961.06
0.9968,0.0032	-12961.20
0.9918,0.0082	-12975.25
0.9994,0.0006	-12953.84
0.9986,0.0014	-12954.04
0.9950,0.0050	-12967.91
0.9976,0.0024	-12966.80
0.9963,0.0037	-12950.36
0.9909,0.0091	-12999.43
0.9995,0.0005	-12968.92
0.9981,0.0019	-12954.31
0.9962,0.0038	-12967.18
0.9975,0.0025	-12960.81
0.9968,0.0032	-12966.95
0.9905,0.0095	-12990.27
0.9994,0.0006	-12946.40
0.9980,0.0020	-12973.07
0.9958,0.0042	-12956.50
0.9975,0.0025	-12954.81
0.9967,0.0033	-12961.26
0.9899,0.0101	-12990.62
0.9995,0.0005	-12946.27
0.9985,0.0015	-12954.08
0.9965,0.0035	-12955.79
0.9977,0.0023	-12960.73
0.9961,0.0039	-12961.72
0.9892,0.0108	-13004.58
0.9995,0.0005	-12953.91
0.9985,0.0015	-12960.57
0.9972,0.0028	-12972.71
0.9973,0.0027	-12990.50
0.9967,0.0033	-12961.30
0.9886,0.0114	-12986.98
0.9995,0.0005	-12946.32
0.9985,0.0015	-12947.51
0.9969,0.0031	-12966.91
0.9969,0.0031	-12966.90
0.9972,0.0028	-12955.11
0.9909,0.0091	-12975.98
0.9996,0.0004	-12946.23
0.9990,0.0010	-12946.88
0.9962,0.0038	-12961.63
0.9972,0.0028	-12966.85
0.9969,0.0031	-12949.65
0.9898,0.0102	-12976.97
0.9996,0.0004	-12954.07
0.9991,0.0009	-12953.82
0.9950,0.0050	-12951.94
0.9967,0.0033	-12961.26
0.9973,0.0027	-12966.83
0.9930,0.0070	-12989.25
0.9997,0.0003	-12954.12
0.9991,0.0009	-12946.84
0.9951,0.0049	-12957.15
0.9972,0.0028	-12949.18
0.9975,0.0025	-12984.81
0.9954,0.0046	-12967.66
0.9997,0.0003	-12954.28
0.9992,0.0008	-12946.64
0.9957,0.0043	-12967.45
0.9970,0.0030	-12949.51
0.9979,0.0021	-12948.27
0.9951,0.0049	-12962.53
0.9997,0.0003	-12945.99
0.9993,0.0007	-12946.54
0.9961,0.0039	-12956.18
0.9971,0.0029	-12961.00
0.9981,0.0019	-12960.61
0.9957,0.0043	-12956.53
0.9998,0.0002	-12945.96
0.9994,0.0006	-12946.46
0.9962,0.0038	-12967.20
0.9969,0.0031	-12966.90
0.9984,0.0016	-12947.75
0.9962,0.0038	-12950.52
0.9998,0.0002	-12945.94
0.9993,0.0007	-12946.60
0.9960,0.0040	-12956.25
0.9964,0.0036	-12950.28
0.9985,0.0015	-12947.57
0.9960,0.0040	-12956.28
0.9998,0.0002	-12945.95
0.9992,0.0008	-12946.66
0.9961,0.0039	-12972.78
0.9955,0.0045	-12951.42
0.9983,0.0017	-12960.57
0.9963,0.0037	-12961.56
0.9998,0.0002	-12945.98
0.9994,0.0006	-12946.47
0.9955,0.0045	-12983.76
0.9960,0.0040	-12956.28
0.9981,0.0019	-12966.86
0.9975,0.0025	-12960.83
0.9998,0.0002	-12945.95
0.9994,0.0006	-12946.50
0.9961,0.0039	-12956.10
0.9961,0.0039	-12956.13
0.9983,0.0017	-12947.78
0.9979,0.0021	-12960.65
0.9998,0.0002	-12945.91
0.9994,0.0006	-12946.48
0.9959,0.0041	-12967.35
0.9955,0.0045	-12967.58
0.9983,0.0017	-12966.94
0.9975,0.0025	-12960.80
0.9998,0.0002	-12954.38
0.9993,0.0007	-12953.83
0.9952,0.0048	-12973.09
0.9963,0.0037	-12967.15
0.9980,0.0020	-12954.38
0.9975,0.0025	-12948.78
0.9998,0.0002	-12945.99
0.9991,0.0009	-12946.82
0.9953,0.0047	-12962.32
0.9970,0.0030	-12955.31
0.9981,0.0019	-12954.33
0.9975,0.0025	-12960.81
0.9997,0.0003	-12954.21
0.9993,0.0007	-12946.60
0.9945,0.0055	-12963.07
0.9977,0.0023	-12954.68
0.9971,0.0029	-12949.31
0.9974,0.0026	-12966.81
0.9997,0.0003	-12946.07
0.9992,0.0008	-12953.82
0.9943,0.0057	-12968.42
0.9973,0.0027	-12966.82
0.9972,0.0028	-12960.94
0.9974,0.0026	-12949.02
0.9997,0.0003	-12946.09
0.9991,0.0009	-12946.76
0.9927,0.0073	-12974.60
0.9980,0.0020	-12948.16
0.9975,0.0025	-12954.85
0.9979,0.0021	-12948.39
0.9997,0.0003	-12946.10
0.9988,0.0012	-12947.18
0.9938,0.0062	-12968.79
0.9981,0.0019	-12948.03
0.9975,0.0025	-12954.79
0.9976,0.0024	-12954.77
0.9997,0.0003	-12946.08
0.9989,0.0011	-12947.01
0.9919,0.0081	-12965.53
0.9979,0.0021	-12954.51
0.9981,0.0019	-12960.60
0.9973,0.0027	-12966.83
0.9997,0.0003	-12946.07
0.9991,0.0009	-12953.83
0.9912,0.0088	-12966.28
0.9977,0.0023	-12960.74
0.9982,0.0018	-12954.26
0.9976,0.0024	-12954.72
0.9997,0.0003	-12954.27
0.9990,0.0010	-12946.89
0.9900,0.0100	-12990.52
0.9972,0.0028	-12949.17
0.9981,0.0019	-12954.32
0.9977,0.0023	-12954.66
0.9997,0.0003	-12954.27
0.9989,0.0011	-12953.86
0.9889,0.0111	-12973.25
0.9977,0.0023	-12948.59
0.9979,0.0021	-12948.30
0.9977,0.0023	-12948.55
0.9998,0.0002	-12945.97
0.9991,0.0009	-12953.82
0.9892,0.0108	-12991.06
0.9977,0.0023	-12954.68
0.9979,0.0021	-12960.66
0.9976,0.0024	-12954.72
0.9997,0.0003	-12946.02
0.9991,0.0009	-12946.87
0.9920,0.0080	-12979.93
0.9979,0.0021	-12948.38
0.9979,0.0021	-12948.37
0.9976,0.0024	-12966.80
0.9997,0.0003	-12954.17
0.9992,0.0008	-12946.71
0.9923,0.0077	-12965.19
0.9977,0.0023	-12948.54
0.9978,0.0022	-12954.61
0.9976,0.0024	-12966.80
0.9997,0.0003	-12946.03
0.9993,0.0007	-12953.82
0.9917,0.0083	-12970.52
0.9975,0.0025	-12954.83
0.9975,0.0025	-12966.80
0.9979,0.0021	-12948.36
0.9997,0.0003	-12946.07
0.9992,0.0008	-12953.82
0.9937,0.0063	-12968.80
0.9977,0.0023	-12954.68
0.9978,0.0022	-12960.68
0.9982,0.0018	-12954.27
0.9997,0.0003	-12946.02
0.9991,0.0009	-12960.80
0.9940,0.0060	-12968.63
0.9972,0.0028	-12949.21
0.9974,0.0026	-12960.86
0.9981,0.0019	-12948.02
0.9997,0.0003	-12946.09
0.9989,0.0011	-12953.87
0.9933,0.0067	-12979.15
0.9975,0.0025	-12960.82
0.9970,0.0030	-12955.24
0.9982,0.0018	-12960.58
0.9997,0.0003	-12946.05
0.9992,0.0008	-12953.82
0.9950,0.0050	-12967.88
0.9978,0.0022	-12954.61
0.9976,0.0024	-12966.80
0.9987,0.0013	-12953.98
0.9996,0.0004	-12946.16
0.9992,0.0008	-12953.82
0.9953,0.0047	-12967.70
0.9980,0.0020	-12948.14
0.9976,0.0024	-12960.76
0.9986,0.0014	-12954.01
0.9996,0.0004	-12946.14
0.9990,0.0010	-12953.85
0.9951,0.0049	-12973.15
0.9976,0.0024	-12954.70
0.9976,0.0024	-12966.80
0.9987,0.0013	-12947.26
0.9996,0.0004	-12946.22
0.9989,0.0011	-12947.01
0.9945,0.0055	-12978.64
0.9979,0.0021	-12948.30
0.9975,0.0025	-12954.82
0.9989,0.0011	-12953.87
0.9995,0.0005	-12946.25
0.9990,0.0010	-12946.94
0.9946,0.0054	-12952.45
0.9980,0.0020	-12948.22
0.9973,0.0027	-12949.07
0.9991,0.0009	-12946.77
0.9996,0.0004	-12946.17
0.9989,0.0011	-12953.89
0.9959,0.0041	-12956.32
0.9983,0.0017	-12947.86
0.9971,0.0029	-12961.02
0.9991,0.0009	-12953.82
0.9996,0.0004	-12946.23
0.9987,0.0013	-12947.35
0.9964,0.0036	-12961.45
0.9982,0.0018	-12954.24
0.9972,0.0028	-12949.24
0.9991,0.0009	-12953.83
0.9996,0.0004	-12953.96
0.9984,0.0016	-12960.57
0.9967,0.0033	-12955.60
0.9977,0.0023	-12960.72
0.9973,0.0027	-12955.00
0.9989,0.0011	-12953.88
0.9996,0.0004	-12946.17
0.9985,0.0015	-12954.07
0.9963,0.0037	-12955.93
0.9968,0.0032	-12961.21
0.9967,0.0033	-12955.55
0.9988,0.0012	-12947.24
0.9996,0.0004	-12946.22
0.9986,0.0014	-12960.58
0.9958,0.0042	-12961.95
0.9961,0.0039	-12967.23
0.9961,0.0039	-12961.67
0.9986,0.0014	-12947.39
0.9996,0.0004	-12953.97
0.9984,0.0016	-12954.14
0.9951,0.0049	-12962.52
0.9963,0.0037	-12967.15
0.9966,0.0034	-12961.30
0.9988,0.0012	-12947.24
0.9995,0.0005	-12953.94
0.9986,0.0014	-12954.04
0.9952,0.0048	-12973.11
0.9961,0.0039	-12956.17
0.9966,0.0034	-12961.34
0.9989,0.0011	-12953.87
0.9996,0.0004	-12946.14
0.9985,0.0015	-12947.57
0.9954,0.0046	-12967.60
0.9968,0.0032	-12955.46
0.9971,0.0029	-12949.35
0.9988,0.0012	-12947.21
0.9996,0.0004	-12946.21
0.9986,0.0014	-12954.03
0.9951,0.0049	-12967.83
0.9976,0.0024	-12954.70
0.9972,0.0028	-12960.99
0.9984,0.0016	-12954.15
0.9995,0.0005	-12946.28
0.9986,0.0014	-12960.59
0.9942,0.0058	-12968.42
0.9973,0.0027	-12949.09
0.9965,0.0035	-12950.11
0.9988,0.0012	-12947.13
0.9996,0.0004	-12946.21
0.9987,0.0013	-12960.62
0.9942,0.0058	-12963.27
0.9976,0.0024	-12960.76
0.9963,0.0037	-12961.58
0.9988,0.0012	-12947.24
0.9996,0.0004	-12946.20
0.9992,0.0008	-12946.72
0.9939,0.0061	-12968.71
0.9973,0.0027	-12960.93
0.9954,0.0046	-12962.24
0.9989,0.0011	-12953.89
0.9996,0.0004	-12953.96
0.9990,0.0010	-12953.85
0.9939,0.0061	-12968.67
0.9979,0.0021	-12948.32
0.9959,0.0041	-12956.38
0.9988,0.0012	-12953.90
0.9995,0.0005	-12946.30
0.9989,0.0011	-12947.05
0.9951,0.0049	-12957.14
0.9978,0.0022	-12948.45
0.9947,0.0053	-12962.82
0.9988,0.0012	-12960.64
0.9994,0.0006	-12946.44
0.9989,0.0011	-12953.88
0.9951,0.0049	-12983.76
0.9970,0.0030	-12972.70
0.9948,0.0052	-12957.50
0.9990,0.0010	-12946.98
0.9994,0.0006	-12953.85
0.9989,0.0011	-12947.13
0.9953,0.0047	-12956.95
0.9975,0.0025	-12960.80
0.9948,0.0052	-12957.56
0.9991,0.0009	-12953.83
0.9993,0.0007	-12946.56
0.9990,0.0010	-12946.92
0.9957,0.0043	-12962.05
0.9971,0.0029	-12961.00
0.9957,0.0043	-12967.47
0.9989,0.0011	-12947.09
0.9995,0.0005	-12953.88
0.9988,0.0012	-12947.14
0.9951,0.0049	-12951.83
0.9962,0.0038	-12961.62
0.9968,0.0032	-12955.44
0.9985,0.0015	-12947.63
0.9995,0.0005	-12946.33
0.9988,0.0012	-12953.90
0.9960,0.0040	-12950.71
0.9970,0.0030	-12955.29
0.9974,0.0026	-12954.95
0.9978,0.0022	-12954.57
0.9995,0.0005	-12946.34
0.9987,0.0013	-12953.95
0.9962,0.0038	-12961.62
0.9971,0.0029	-12961.04
0.9977,0.0023	-12960.73
0.9982,0.0018	-12960.59
0.9994,0.0006	-12946.48
0.9986,0.0014	-12947.42
0.9963,0.0037	-12961.52
0.9969,0.0031	-12961.13
0.9981,0.0019	-12960.61
0.9980,0.0020	-12954.38
0.9993,0.0007	-12946.50
0.9987,0.0013	-12953.95
0.9963,0.0037	-12955.96
0.9964,0.0036	-12961.48
0.9983,0.0017	-12947.82
0.9981,0.0019	-12960.61
0.9992,0.0008	-12946.68
0.9990,0.0010	-12953.85
0.9965,0.0035	-12967.06
0.9962,0.0038	-12956.01
0.9984,0.0016	-12947.68
0.9978,0.0022	-12954.58
0.9991,0.0009	-12953.83
0.9990,0.0010	-12953.84
0.9962,0.0038	-12961.65
0.9968,0.0032	-12961.19
0.9982,0.0018	-12947.94
0.9976,0.0024	-12960.76
0.9992,0.0008	-12946.74
0.9991,0.0009	-12953.82
0.9964,0.0036	-12972.73
0.9971,0.0029	-12955.22
0.9984,0.0016	-12954.13
0.9977,0.0023	-12954.63
0.9992,0.0008	-12946.67
0.9989,0.0011	-12947.07
0.9960,0.0040	-12956.25
0.9971,0.0029	-12961.05
0.9983,0.0017	-12954.19
0.9979,0.0021	-12948.29
0.9991,0.0009	-12946.84
0.9990,0.0010	-12946.96
0.9967,0.0033	-12949.90
0.9970,0.0030	-12966.89
0.9984,0.0016	-12954.13
0.9977,0.0023	-12960.73
0.9991,0.0009	-12946.76
0.9988,0.0012	-12947.18
0.9965,0.0035	-12955.78
0.9967,0.0033	-12949.79
0.9984,0.0016	-12947.75
0.9976,0.0024	-12972.85
0.9992,0.0008	-12946.69
0.9987,0.0013	-12960.61
0.9959,0.0041	-12956.39
0.9969,0.0031	-12955.33
0.9982,0.0018	-12947.98
0.9973,0.0027	-12960.92
0.9992,0.0008	-12953.82
0.9986,0.0014	-12954.02
0.9954,0.0046	-12967.65
0.9970,0.0030	-12949.52
0.9979,0.0021	-12954.49
0.9971,0.0029	-12966.87
0.9993,0.0007	-12946.51
0.9986,0.0014	-12947.49
0.9954,0.0046	-12962.22
0.9969,0.0031	-12961.14
0.9981,0.0019	-12948.05
0.9970,0.0030	-12961.10
0.9993,0.0007	-12946.54
0.9987,0.0013	-12953.95
0.9968,0.0032	-12955.46
0.9968,0.0032	-12961.17
0.9986,0.0014	-12947.44
0.9972,0.0028	-12960.98
0.9993,0.0007	-12946.54
0.9986,0.0014	-12947.48
0.9970,0.0030	-12978.49
0.9968,0.0032	-12949.72
0.9985,0.0015	-12947.51
0.9964,0.0036	-12950.17
0.9993,0.0007	-12953.83
0.9981,0.0019	-12948.09
0.9974,0.0026	-12966.82
0.9963,0.0037	-12961.56
0.9986,0.0014	-12947.43
0.9969,0.0031	-12949.55
0.9993,0.0007	-12946.56
0.9980,0.0020	-12948.20
0.9967,0.0033	-12961.26
0.9960,0.0040	-12956.24
0.9987,0.0013	-12953.96
0.9976,0.0024	-12960.79
0.9994,0.0006	-12946.42
0.9985,0.0015	-12954.05
0.9971,0.0029	-12949.36
0.9958,0.0042	-12956.50
0.9989,0.0011	-12947.01
0.9977,0.0023	-12948.59
0.9994,0.0006	-12946.40
0.9984,0.0016	-12973.48
0.9969,0.0031	-12949.63
0.9957,0.0043	-12962.03
0.9992,0.0008	-12953.82
0.9973,0.0027	-12949.07
0.9995,0.0005	-12946.36
0.9983,0.0017	-12960.58
0.9971,0.0029	-12955.16
0.9957,0.0043	-12967.43
0.9993,0.0007	-12953.82
0.9977,0.0023	-12954.65
0.9995,0.0005	-12946.26
0.9986,0.0014	-12947.51
0.9978,0.0022	-12948.50
0.9952,0.0048	-12973.10
0.9994,0.0006	-12946.47
0.9980,0.0020	-12960.63
0.9994,0.0006	-12953.85
0.9989,0.0011	-12947.11
0.9981,0.0019	-12960.60
0.9954,0.0046	-12973.00
0.9993,0.0007	-12953.82
0.9982,0.0018	-12960.58
0.9993,0.0007	-12946.54
0.9991,0.0009	-12946.80
0.9982,0.0018	-12960.58
0.9964,0.0036	-12967.08
0.9992,0.0008	-12946.70
0.9985,0.0015	-12954.05
0.9993,0.0007	-12946.58
0.9991,0.0009	-12946.75
0.9981,0.0019	-12948.04
0.9969,0.0031	-12955.34
0.9989,0.0011	-12960.67
0.9984,0.0016	-12947.65
0.9991,0.0009	-12946.87
0.9990,0.0010	-12960.75
0.9978,0.0022	-12954.56
0.9973,0.0027	-12949.08
0.9985,0.0015	-12947.52
0.9984,0.0016	-12960.57
0.9990,0.0010	-12946.91
0.9990,0.0010	-12946.97
0.9978,0.0022	-12954.60
0.9973,0.0027	-12949.13
0.9985,0.0015	-12954.08
0.9983,0.0017	-12947.77
0.9992,0.0008	-12946.73
0.9992,0.0008	-12953.82
0.9984,0.0016	-12954.14
0.9960,0.0040	-12956.27
0.9984,0.0016	-12947.68
0.9983,0.0017	-12954.21
0.9989,0.0011	-12960.71
0.9992,0.0008	-12946.74
0.9989,0.0011	-12947.10
0.9961,0.0039	-12972.77
0.9987,0.0013	-12953.97
0.9982,0.0018	-12954.25
0.9987,0.0013	-12960.62
0.9992,0.0008	-12953.82
0.9990,0.0010	-12953.85
0.9959,0.0041	-12961.87
0.9988,0.0012	-12953.90
0.9977,0.0023	-12948.61
0.9989,0.0011	-12947.06
0.9994,0.0006	-12946.48
0.9990,0.0010	-12946.88
0.9969,0.0031	-12949.62
0.9991,0.0009	-12953.82
0.9975,0.0025	-12948.80
0.9986,0.0014	-12954.00
0.9993,0.0007	-12953.83
0.9992,0.0008	-12946.71
0.9971,0.0029	-12955.17
0.9989,0.0011	-12947.07
0.9979,0.0021	-12948.34
0.9985,0.0015	-12947.56
0.9993,0.0007	-12953.83
0.9990,0.0010	-12960.76
0.9969,0.0031	-12955.42
0.9990,0.0010	-12946.91
0.9977,0.0023	-12954.65
0.9986,0.0014	-12947.46
0.9994,0.0006	-12946.41
0.9989,0.0011	-12947.05
0.9972,0.0028	-12978.60
0.9989,0.0011	-12953.86
0.9974,0.0026	-12960.85
0.9988,0.0012	-12953.91
0.9996,0.0004	-12946.21
0.9990,0.0010	-12946.94
0.9973,0.0027	-12954.96
0.9990,0.0010	-12953.83
0.9977,0.0023	-12954.63
0.9990,0.0010	-12960.77
0.9995,0.0005	-12946.36
0.9989,0.0011	-12947.01
0.9974,0.0026	-12954.90
0.9990,0.0010	-12946.91
0.9975,0.0025	-12960.82
0.9992,0.0008	-12946.75
0.9995,0.0005	-12946.30
0.9990,0.0010	-12946.91
0.9975,0.0025	-12954.85
0.9992,0.0008	-12953.82
0.9977,0.0023	-12954.66
0.9990,0.0010	-12946.93
0.9995,0.0005	-12946.34
0.9991,0.0009	-12946.85
0.9977,0.0023	-12954.67
0.9992,0.0008	-12946.63
0.9981,0.0019	-12960.60
0.9989,0.0011	-12947.06
0.9996,0.0004	-12946.18
0.9989,0.0011	-12947.13
0.9976,0.0024	-12972.83
0.9994,0.0006	-12946.46
0.9985,0.0015	-12947.57
0.9985,0.0015	-12973.52
0.9995,0.0005	-12946.26
0.9989,0.0011	-12947.03
0.9981,0.0019	-12960.60
0.9994,0.0006	-12946.41
0.9987,0.0013	-12953.96
0.9985,0.0015	-12947.58
0.9995,0.0005	-12946.35
0.9991,0.0009	-12953.83
0.9981,0.0019	-12948.10
0.9993,0.0007	-12953.82
0.9988,0.0012	-12947.20
0.9984,0.0016	-12947.65
0.9995,0.0005	-12946.28
0.9991,0.0009	-12946.78
0.9981,0.0019	-12948.12
0.9993,0.0007	-12946.59
0.9988,0.0012	-12947.18
0.9984,0.0016	-12954.11
0.9995,0.0005	-12953.94
0.9990,0.0010	-12953.86
0.9976,0.0024	-12960.75
0.9994,0.0006	-12953.86
0.9988,0.0012	-12947.22
0.9979,0.0021	-12954.52
0.9995,0.0005	-12946.28
0.9990,0.0010	-12960.74
0.9975,0.0025	-12948.80
0.9994,0.0006	-12946.43
0.9988,0.0012	-12947.14
0.9979,0.0021	-12960.66
0.9996,0.0004	-12946.19
0.9990,0.0010	-12946.94
0.9974,0.0026	-12972.77
0.9994,0.0006	-12946.45
0.9989,0.0011	-12960.68
0.9979,0.0021	-12966.82
0.9994,0.0006	-12946.45
0.9991,0.0009	-12953.83
0.9974,0.0026	-12966.82
0.9994,0.0006	-12946.39
0.9988,0.0012	-12947.22
0.9986,0.0014	-12947.43
0.9994,0.0006	-12946.48
0.9989,0.0011	-12953.87
0.9976,0.0024	-12960.78
0.9996,0.0004	-12946.24
0.9990,0.0010	-12953.84
0.9987,0.0013	-12953.96
0.9994,0.0006	-12946.41
0.9989,0.0011	-12953.87
0.9972,0.0028	-12972.72
0.9995,0.0005	-12946.35
0.9991,0.0009	-12946.86
0.9987,0.0013	-12947.27
0.9995,0.0005	-12946.35
0.9990,0.0010	-12946.95
0.9971,0.0029	-12955.17
0.9995,0.0005	-12946.26
0.9992,0.0008	-12953.82
0.9984,0.0016	-12954.12
0.9994,0.0006	-12946.38
0.9990,0.0010	-12946.91
0.9976,0.0024	-12960.76
0.9995,0.0005	-12946.28
0.9992,0.0008	-12946.73
0.9984,0.0016	-12960.57
0.9996,0.0004	-12946.21
0.9991,0.0009	-12946.78
0.9973,0.0027	-12949.08
0.9995,0.0005	-12946.27
0.9991,0.0009	-12946.81
0.9984,0.0016	-12947.72
0.9997,0.0003	-12946.12
0.9991,0.0009	-12946.83
0.9972,0.0028	-12978.58
0.9997,0.0003	-12946.07
0.9990,0.0010	-12960.78
0.9986,0.0014	-12947.51
0.9997,0.0003	-12946.11
0.9992,0.0008	-12946.63
0.9976,0.0024	-12948.69
0.9997,0.0003	-12946.02
0.9990,0.0010	-12967.65
0.9985,0.0015	-12960.58
0.9997,0.0003	-12946.09
0.9992,0.0008	-12953.82
0.9978,0.0022	-12954.54
0.9997,0.0003	-12946.01
0.9988,0.0012	-12947.17
0.9986,0.0014	-12954.04
0.9998,0.0002	-12945.99
0.9990,0.0010	-12946.89
0.9980,0.0020	-12960.62
0.9997,0.0003	-12946.06
0.9989,0.0011	-12947.10
0.9984,0.0016	-12954.13
0.9997,0.0003	-12945.99
0.9989,0.0011	-12947.03
0.9978,0.0022	-12960.69
0.9997,0.0003	-12946.11
0.9988,0.0012	-12953.91
0.9983,0.0017	-12954.18
0.9997,0.0003	-12946.08
0.9989,0.0011	-12947.03
0.9975,0.0025	-12954.80
0.9996,0.0004	-12946.18
0.9988,0.0012	-12953.92
0.9985,0.0015	-12947.57
0.9996,0.0004	-12946.24
0.9985,0.0015	-12954.05
0.9976,0.0024	-12966.80
0.9996,0.0004	-12954.07
0.9985,0.0015	-12947.56
0.9984,0.0016	-12947.70
0.9996,0.0004	-12946.20
0.9987,0.0013	-12947.31
0.9981,0.0019	-12948.06
0.9997,0.0003	-12954.08
0.9982,0.0018	-12960.59
0.9983,0.0017	-12954.18
0.9995,0.0005	-12946.34
0.9989,0.0011	-12953.86
0.9977,0.0023	-12960.74
0.9996,0.0004	-12946.18
0.9981,0.0019	-12960.60
0.9984,0.0016	-12960.57
0.9994,0.0006	-12946.41
0.9987,0.0013	-12947.31
0.9979,0.0021	-12954.53
0.9996,0.0004	-12954.06
0.9982,0.0018	-12947.92
0.9984,0.0016	-12954.16
0.9993,0.0007	-12946.53
0.9987,0.0013	-12947.28
0.9984,0.0016	-12954.17
0.9997,0.0003	-12946.08
0.9983,0.0017	-12954.23
0.9979,0.0021	-12954.47
0.9994,0.0006	-12946.50
0.9985,0.0015	-12954.04
0.9983,0.0017	-12960.57
0.9997,0.0003	-12946.08
0.9980,0.0020	-12960.63
0.9981,0.0019	-12960.60
0.9994,0.0006	-12953.86
0.9985,0.0015	-12954.08
0.9982,0.0018	-12954.26
0.9997,0.0003	-12946.07
0.9985,0.0015	-12954.09
0.9981,0.0019	-12948.03
0.9992,0.0008	-12953.82
0.9986,0.0014	-12967.17
0.9977,0.0023	-12948.61
0.9997,0.0003	-12946.10
0.9983,0.0017	-12954.17
0.9981,0.0019	-12954.34
0.9994,0.0006	-12946.50
0.9982,0.0018	-12960.58
0.9976,0.0024	-12960.76
0.9995,0.0005	-12946.30
0.9985,0.0015	-12954.06
0.9983,0.0017	-12954.19
0.9994,0.0006	-12946.46
0.9987,0.0013	-12960.60
0.9974,0.0026	-12960.86
0.9995,0.0005	-12946.33
0.9984,0.0016	-12947.68
0.9983,0.0017	-12947.88
0.9993,0.0007	-12946.50
0.9988,0.0012	-12947.14
0.9975,0.0025	-12966.80
0.9995,0.0005	-12961.48
0.9982,0.0018	-12954.24
0.9984,0.0016	-12947.71
0.9991,0.0009	-12953.83
0.9988,0.0012	-12960.63
0.9978,0.0022	-12966.81
0.9995,0.0005	-12946.28
0.9984,0.0016	-12947.68
0.9989,0.0011	-12947.04
0.9992,0.0008	-12968.10
0.9986,0.0014	-12967.19
0.9979,0.0021	-12948.35
0.9996,0.0004	-12946.24
0.9987,0.0013	-12953.97
0.9989,0.0011	-12953.88
0.9990,0.0010	-12953.84
0.9988,0.0012	-12960.66
0.9982,0.0018	-12954.29
0.9996,0.0004	-12946.13
0.9984,0.0016	-12954.12
0.9989,0.0011	-12947.01
0.9989,0.0011	-12947.10
0.9991,0.0009	-12946.83
0.9987,0.0013	-12947.36
0.9996,0.0004	-12954.08
0.9985,0.0015	-12954.09
0.9989,0.0011	-12953.88
0.9983,0.0017	-12954.20
0.9988,0.0012	-12947.15
0.9987,0.0013	-12953.95
0.9997,0.0003	-12946.02
0.9985,0.0015	-12954.05
0.9986,0.0014	-12947.39
0.9984,0.0016	-12947.73
0.9988,0.0012	-12953.90
0.9989,0.0011	-12953.88
0.9997,0.0003	-12954.20
0.9989,0.0011	-12947.13
0.9979,0.0021	-12960.67
0.9982,0.0018	-12954.24
0.9990,0.0010	-12953.84
0.9991,0.0009	-12946.86
0.9997,0.0003	-12946.08
0.9989,0.0011	-12947.11
0.9981,0.0019	-12954.37
0.9984,0.0016	-12947.71
0.9992,0.0008	-12946.66
0.9990,0.0010	-12953.85
0.9997,0.0003	-12946.11
0.9988,0.0012	-12947.21
0.9981,0.0019	-12954.35
0.9988,0.0012	-12960.64
0.9993,0.0007	-12961.05
0.9988,0.0012	-12947.24
0.9997,0.0003	-12946.08
0.9986,0.0014	-12947.41
0.9974,0.0026	-12960.85
0.9990,0.0010	-12953.84
0.9992,0.0008	-12953.82
0.9986,0.0014	-12960.58
0.9996,0.0004	-12946.19
0.9987,0.0013	-12960.61
0.9967,0.0033	-12972.69
0.9989,0.0011	-12947.01
0.9993,0.0007	-12946.56
0.9988,0.0012	-12947.25
0.9995,0.0005	-12946.30
0.9986,0.0014	-12954.00
0.9965,0.0035	-12955.79
0.9989,0.0011	-12953.87
0.9993,0.0007	-12946.52
0.9987,0.0013	-12960.62
0.9995,0.0005	-12946.27
0.9987,0.0013	-12947.28
0.9960,0.0040	-12950.69
0.9991,0.0009	-12946.85
0.9993,0.0007	-12946.54
0.9987,0.0013	-12947.33
0.9995,0.0005	-12946.35
0.9991,0.0009	-12960.81
0.9963,0.0037	-12950.30
0.9990,0.0010	-12953.84
0.9992,0.0008	-12953.82
0.9984,0.0016	-12967.01
0.9994,0.0006	-12946.41
0.9991,0.0009	-12946.77
0.9949,0.0051	-12962.67
0.9991,0.0009	-12953.83
0.9992,0.0008	-12946.67
0.9986,0.0014	-12947.46
0.9994,0.0006	-12946.47
0.9990,0.0010	-12953.84
0.9943,0.0057	-12952.92
0.9990,0.0010	-12953.85
0.9992,0.0008	-12946.66
0.9987,0.0013	-12947.36
0.9995,0.0005	-12961.44
0.9991,0.0009	-12953.82
0.9940,0.0060	-12983.93
0.9989,0.0011	-12947.06
0.9993,0.0007	-12946.62
0.9987,0.0013	-12947.35
0.9995,0.0005	-12946.32
0.9988,0.0012	-12947.15
0.9936,0.0064	-12968.95
0.9990,0.0010	-12946.88
0.9992,0.0008	-12953.82
0.9987,0.0013	-12947.26
0.9993,0.0007	-12946.51
0.9986,0.0014	-12947.47
0.9930,0.0070	-12964.46
0.9990,0.0010	-12946.96
0.9991,0.0009	-12946.79
0.9985,0.0015	-12954.09
0.9993,0.0007	-12946.55
0.9985,0.0015	-12947.58
0.9910,0.0090	-12990.01
0.9991,0.0009	-12953.83
0.9992,0.0008	-12946.72
0.9983,0.0017	-12954.21
0.9994,0.0006	-12946.43
0.9981,0.0019	-12948.05
0.9926,0.0074	-12955.08
0.9989,0.0011	-12947.12
0.9991,0.0009	-12946.76
0.9983,0.0017	-12954.19
0.9994,0.0006	-12946.38
0.9982,0.0018	-12960.59
0.9931,0.0069	-12979.28
0.9986,0.0014	-12947.40
0.9992,0.0008	-12946.69
0.9984,0.0016	-12954.13
0.9995,0.0005	-12946.32
0.9980,0.0020	-12948.21
0.9924,0.0076	-12969.93
0.9985,0.0015	-12947.61
0.9991,0.0009	-12953.83
0.9985,0.0015	-12960.57
0.9994,0.0006	-12953.84
0.9983,0.0017	-12960.58
0.9936,0.0064	-12958.80
0.9984,0.0016	-12954.13
0.9990,0.0010	-12946.98
0.9985,0.0015	-12954.05
0.9995,0.0005	-12946.27
0.9980,0.0020	-12960.62
0.9932,0.0068	-12959.28
0.9989,0.0011	-12947.09
0.9989,0.0011	-12953.87
0.9983,0.0017	-12954.23
0.9994,0.0006	-12946.44
0.9976,0.0024	-12948.67
0.9926,0.0074	-12964.85
0.9990,0.0010	-12960.77
0.9990,0.0010	-12946.89
0.9983,0.0017	-12947.78
0.9993,0.0007	-12946.55
0.9980,0.0020	-12948.22
0.9929,0.0071	-12969.50
0.9991,0.0009	-12946.78
0.9989,0.0011	-12960.67
0.9988,0.0012	-12947.21
0.9993,0.0007	-12946.56
0.9982,0.0018	-12954.25
0.9910,0.0090	-12975.88
0.9991,0.0009	-12953.82
0.9987,0.0013	-12947.29
0.9985,0.0015	-12947.61
0.9992,0.0008	-12946.64
0.9987,0.0013	-12947.33
0.9896,0.0104	-12986.21
0.9992,0.0008	-12946.63
0.9989,0.0011	-12947.08
0.9979,0.0021	-12973.02
0.9992,0.0008	-12946.75
0.9988,0.0012	-12947.20
0.9899,0.0101	-12981.41
0.9994,0.0006	-12946.48
0.9991,0.0009	-12946.85
0.9979,0.0021	-12954.52
0.9990,0.0010	-12960.75
0.9991,0.0009	-12946.88
0.9883,0.0117	-12982.70
0.9996,0.0004	-12953.97
0.9992,0.0008	-12946.69
0.9977,0.0023	-12972.89
0.9989,0.0011	-12947.02
0.9989,0.0011	-12947.02
0.9899,0.0101	-12986.03
0.9996,0.0004	-12946.18
0.9992,0.0008	-12946.68
0.9979,0.0021	-12948.36
0.9990,0.0010	-12946.99
0.9986,0.0014	-12960.58
0.9905,0.0095	-12971.65
0.9995,0.0005	-12953.93
0.9993,0.0007	-12946.59
0.9979,0.0021	-12966.82
0.9986,0.0014	-12954.01
0.9988,0.0012	-12947.17
0.9891,0.0109	-12982.07
0.9994,0.0006	-12946.40
0.9994,0.0006	-12946.48
0.9979,0.0021	-12948.34
0.9990,0.0010	-12960.76
0.9987,0.0013	-12960.61
0.9908,0.0092	-13004.16
0.9996,0.0004	-12946.24
0.9996,0.0004	-12946.24
0.9982,0.0018	-12954.24
0.9989,0.0011	-12947.12
0.9988,0.0012	-12953.92
0.9934,0.0066	-12989.14
0.9995,0.0005	-12946.28
0.9995,0.0005	-12946.31
0.9983,0.0017	-12954.22
0.9985,0.0015	-12947.59
0.9986,0.0014	-12947.46
0.9948,0.0052	-12962.78
0.9996,0.0004	-12953.99
0.9996,0.0004	-12946.22
0.9983,0.0017	-12954.19
0.9988,0.0012	-12947.24
0.9984,0.0016	-12960.57
0.9941,0.0059	-12973.69
0.9996,0.0004	-12953.96
0.9995,0.0005	-12953.95
0.9988,0.0012	-12953.92
0.9988,0.0012	-12947.18
0.9983,0.0017	-12954.17
0.9928,0.0072	-12974.50
0.9994,0.0006	-12946.42
0.9995,0.0005	-12946.31
0.9990,0.0010	-12946.92
0.9987,0.0013	-12960.61
0.9986,0.0014	-12947.45
0.9933,0.0067	-12979.18
0.9995,0.0005	-12946.33
0.9996,0.0004	-12946.18
0.9989,0.0011	-12947.10
0.9986,0.0014	-12954.00
0.9985,0.0015	-12954.09
0.9933,0.0067	-12964.20
0.9995,0.0005	-12953.92
0.9996,0.0004	-12946.20
0.9987,0.0013	-12953.95
0.9985,0.0015	-12954.05
0.9983,0.0017	-12947.88
0.9934,0.0066	-12969.09
0.9995,0.0005	-12946.30
0.9995,0.0005	-12961.56
0.9985,0.0015	-12954.07
0.9984,0.0016	-12954.13
0.9986,0.0014	-12954.03
0.9936,0.0064	-12963.83
0.9996,0.0004	-12953.99
0.9994,0.0006	-12946.41
0.9988,0.0012	-12960.63
0.9986,0.0014	-12954.02
0.9986,0.0014	-12954.00
0.9946,0.0054	-12968.19
0.9996,0.0004	-12946.19
0.9994,0.0006	-12946.41
0.9989,0.0011	-12947.03
0.9986,0.0014	-12947.43
0.9986,0.0014	-12954.03
0.9937,0.0063	-12963.79
0.9996,0.0004	-12946.23
0.9994,0.0006	-12946.46
0.9990,0.0010	-12946.98
0.9987,0.0013	-12947.27
0.9988,0.0012	-12947.16
0.9933,0.0067	-12969.16
0.9995,0.0005	-12953.88
0.9994,0.0006	-12953.85
0.9989,0.0011	-12947.06
0.9988,0.0012	-12947.14
0.9989,0.0011	-12947.10
0.9944,0.0056	-12978.68
0.9995,0.0005	-12946.31
0.9995,0.0005	-12946.31
0.9988,0.0012	-12947.16
0.9988,0.0012	-12947.17
0.9985,0.0015	-12954.06
0.9945,0.0055	-12973.46
0.9996,0.0004	-12954.03
0.9995,0.0005	-12946.32
0.9985,0.0015	-12954.09
0.9988,0.0012	-12947.19
0.9982,0.0018	-12966.91
0.9947,0.0053	-12957.58
0.9997,0.0003	-12946.11
0.9993,0.0007	-12946.51
0.9980,0.0020	-12954.42
0.9989,0.0011	-12953.87
0.9978,0.0022	-12985.14
0.9949,0.0051	-12973.22
0.9997,0.0003	-12946.06
0.9993,0.0007	-12946.53
0.9977,0.0023	-12954.62
0.9988,0.0012	-12947.18
0.9974,0.0026	-12960.89
0.9951,0.0049	-12973.12
0.9997,0.0003	-12946.03
0.9994,0.0006	-12946.41
0.9975,0.0025	-12960.79
0.9987,0.0013	-12947.28
0.9972,0.0028	-12972.71
0.9942,0.0058	-12978.74
0.9997,0.0003	-12946.00
0.9993,0.0007	-12953.83
0.9974,0.0026	-12954.94
0.9987,0.0013	-12947.35
0.9964,0.0036	-12955.84
0.9939,0.0061	-12983.97
0.9997,0.0003	-12946.11
0.9993,0.0007	-12946.56
0.9974,0.0026	-12960.85
0.9987,0.0013	-12967.21
0.9957,0.0043	-12962.01
0.9934,0.0066	-12969.05
0.9996,0.0004	-12946.15
0.9995,0.0005	-12946.31
0.9971,0.0029	-12966.85
0.9984,0.0016	-12954.16
0.9958,0.0042	-12961.93
0.9946,0.0054	-12952.57
0.9996,0.0004	-12946.21
0.9995,0.0005	-12953.91
0.9975,0.0025	-12948.85
0.9982,0.0018	-12966.92
0.9952,0.0048	-12989.10
0.9946,0.0054	-12994.23
0.9996,0.0004	-12946.13
0.9994,0.0006	-12946.40
0.9975,0.0025	-12954.79
0.9984,0.0016	-12947.74
0.9954,0.0046	-12962.21
0.9942,0.0058	-12968.42
0.9995,0.0005	-12946.25
0.9993,0.0007	-12946.54
0.9975,0.0025	-12954.82
0.9983,0.0017	-12947.80
0.9952,0.0048	-12967.74
0.9947,0.0053	-12957.65
0.9995,0.0005	-12953.88
0.9993,0.0007	-12946.56
0.9972,0.0028	-12960.95
0.9982,0.0018	-12947.94
0.9951,0.0049	-12967.84
0.9958,0.0042	-12978.33
0.9996,0.0004	-12946.21
0.9992,0.0008	-12946.65
0.9968,0.0032	-12949.75
0.9982,0.0018	-12954.24
0.9937,0.0063	-12973.90
0.9948,0.0052	-12978.52
0.9996,0.0004	-12946.19
0.9991,0.0009	-12953.83
0.9964,0.0036	-12961.47
0.9986,0.0014	-12954.04
0.9954,0.0046	-12978.38
0.9945,0.0055	-12973.45
0.9997,0.0003	-12946.10
0.9990,0.0010	-12946.95
0.9967,0.0033	-12955.53
0.9984,0.0016	-12960.57
0.9959,0.0041	-12967.34
0.9941,0.0059	-12958.33
0.9996,0.0004	-12946.12
0.9991,0.0009	-12953.83
0.9975,0.0025	-12960.82
0.9986,0.0014	-12960.59
0.9959,0.0041	-12961.88
0.9928,0.0072	-12969.59
0.9996,0.0004	-12946.16
0.9992,0.0008	-12946.69
0.9966,0.0034	-12967.01
0.9986,0.0014	-12960.59
0.9961,0.0039	-12967.26
0.9941,0.0059	-12973.63
0.9995,0.0005	-12946.31
0.9993,0.0007	-12953.82
0.9963,0.0037	-12972.74
0.9985,0.0015	-12947.55
0.9966,0.0034	-12950.03
0.9937,0.0063	-12968.82
0.9995,0.0005	-12953.89
0.9993,0.0007	-12953.83
0.9972,0.0028	-12960.96
0.9985,0.0015	-12954.09
0.9960,0.0040	-12956.22
0.9941,0.0059	-12963.43
0.9995,0.0005	-12946.26
0.9993,0.0007	-12953.82
0.9975,0.0025	-12960.81
0.9985,0.0015	-12947.58
0.9964,0.0036	-12961.51
0.9940,0.0060	-12963.51
0.9995,0.0005	-12946.26
0.9992,0.0008	-12953.82
0.9973,0.0027	-12966.83
0.9990,0.0010	-12946.98
0.9966,0.0034	-12961.35
0.9942,0.0058	-12958.14
0.9997,0.0003	-12946.12
0.9991,0.0009	-12946.86
0.9980,0.0020	-12973.07
0.9987,0.0013	-12967.24
0.9964,0.0036	-12967.11
0.9952,0.0048	-12962.45
0.9997,0.0003	-12946.03
0.9992,0.0008	-12953.82
0.9976,0.0024	-12954.75
0.9988,0.0012	-12947.13
0.9966,0.0034	-12949.97
0.9955,0.0045	-12972.97
0.9997,0.0003	-12946.01
0.9994,0.0006	-12946.47
0.9976,0.0024	-12948.66
0.9990,0.0010	-12953.85
0.9968,0.0032	-12972.69
0.9947,0.0053	-12973.31
0.9997,0.0003	-12946.03
0.9995,0.0005	-12953.93
0.9978,0.0022	-12966.81
0.9990,0.0010	-12960.72
0.9973,0.0027	-12966.82
0.9945,0.0055	-12963.02
0.9997,0.0003	-12946.02
0.9996,0.0004	-12946.16
0.9977,0.0023	-12954.65
0.9990,0.0010	-12946.89
0.9973,0.0027	-12949.14
0.9934,0.0066	-12969.07
0.9998,0.0002	-12945.92
0.9997,0.0003	-12946.10
0.9972,0.0028	-12949.16
0.9990,0.0010	-12946.99
0.9976,0.0024	-12954.75
0.9913,0.0087	-12975.70
0.9998,0.0002	-12945.91
0.9995,0.0005	-12946.30
0.9973,0.0027	-12960.93
0.9990,0.0010	-12946.90
0.9971,0.0029	-12949.31
0.9930,0.0070	-12954.49
0.9998,0.0002	-12945.95
0.9994,0.0006	-12953.88
0.9972,0.0028	-12960.98
0.9991,0.0009	-12946.81
0.9967,0.0033	-12949.86
0.9951,0.0049	-12967.80
0.9997,0.0003	-12946.01
0.9994,0.0006	-12946.41
0.9970,0.0030	-12972.69
0.9992,0.0008	-12946.73
0.9973,0.0027	-12954.97
0.9958,0.0042	-12972.86
0.9997,0.0003	-12954.16
0.9995,0.0005	-12946.27
0.9975,0.0025	-12954.84
0.9990,0.0010	-12946.94
0.9973,0.0027	-12954.96
0.9948,0.0052	-12957.56
0.9996,0.0004	-12946.19
0.9995,0.0005	-12946.33
0.9971,0.0029	-12972.71
0.9990,0.0010	-12946.92
0.9979,0.0021	-12954.50
0.9951,0.0049	-12951.91
0.9996,0.0004	-12961.87
0.9995,0.0005	-12946.31
0.9975,0.0025	-12954.81
0.9992,0.0008	-12946.74
0.9980,0.0020	-12948.25
0.9963,0.0037	-12955.97
0.9995,0.0005	-12946.28
0.9996,0.0004	-12946.19
0.9980,0.0020	-12948.14
0.9992,0.0008	-12946.70
0.9976,0.0024	-12960.77
0.9969,0.0031	-12955.36
0.9996,0.0004	-12946.21
0.9995,0.0005	-12946.25
0.9978,0.0022	-12954.57
0.9991,0.0009	-12946.78
0.9976,0.0024	-12948.67
0.9970,0.0030	-12961.06
0.9996,0.0004	-12946.18
0.9995,0.0005	-12953.92
0.9977,0.0023	-12954.69
0.9988,0.0012	-12947.24
0.9976,0.0024	-12960.77
0.9969,0.0031	-12955.33
0.9996,0.0004	-12946.18
0.9994,0.0006	-12961.33
0.9976,0.0024	-12960.76
0.9988,0.0012	-12953.92
0.9978,0.0022	-12960.70
0.9974,0.0026	-12966.81
0.9996,0.0004	-12946.21
0.9995,0.0005	-12946.32
0.9979,0.0021	-12948.28
0.9987,0.0013	-12947.37
0.9976,0.0024	-12954.73
0.9970,0.0030	-12949.41
0.9995,0.0005	-12946.30
0.9996,0.0004	-12946.24
0.9983,0.0017	-12954.17
0.9986,0.0014	-12954.02
0.9971,0.0029	-12955.20
0.9976,0.0024	-12948.69
0.9995,0.0005	-12946.27
0.9995,0.0005	-12953.90
0.9985,0.0015	-12954.05
0.9986,0.0014	-12947.44
0.9974,0.0026	-12960.87
0.9980,0.0020	-12973.03
0.9995,0.0005	-12946.34
0.9995,0.0005	-12946.30
0.9988,0.0012	-12947.24
0.9987,0.0013	-12947.30
0.9973,0.0027	-12954.97
0.9981,0.0019	-12954.32
0.9994,0.0006	-12946.47
0.9996,0.0004	-12953.97
0.9990,0.0010	-12946.98
0.9983,0.0017	-12947.78
0.9976,0.0024	-12966.80
0.9981,0.0019	-12948.07
0.9994,0.0006	-12946.40
0.9996,0.0004	-12946.16
0.9990,0.0010	-12960.77
0.9984,0.0016	-12954.17
0.9973,0.0027	-12960.90
0.9981,0.0019	-12960.61
0.9993,0.0007	-12946.53
0.9997,0.0003	-12946.10
0.9986,0.0014	-12947.40
0.9981,0.0019	-12954.32
0.9974,0.0026	-12954.93
0.9980,0.0020	-12960.62
0.9994,0.0006	-12946.37
0.9997,0.0003	-12946.08
0.9987,0.0013	-12947.29
0.9978,0.0022	-12948.40
0.9973,0.0027	-12955.04
0.9985,0.0015	-12960.57
0.9996,0.0004	-12946.22
0.9997,0.0003	-12946.11
0.9986,0.0014	-12947.50
0.9983,0.0017	-12960.57
0.9965,0.0035	-12955.77
0.9982,0.0018	-12947.97
0.9995,0.0005	-12946.26
0.9996,0.0004	-12946.19
0.9987,0.0013	-12967.30
0.9981,0.0019	-12948.12
0.9958,0.0042	-12961.89
0.9981,0.0019	-12960.61
0.9996,0.0004	-12946.23
0.9996,0.0004	-12946.16
0.9988,0.0012	-12960.63
0.9982,0.0018	-12947.91
0.9963,0.0037	-12967.15
0.9984,0.0016	-12947.64
0.9996,0.0004	-12946.21
0.9997,0.0003	-12946.11
0.9986,0.0014	-12947.45
0.9985,0.0015	-12947.58
0.9969,0.0031	-12961.14
0.9983,0.0017	-12947.81
0.9996,0.0004	-12954.07
0.9997,0.0003	-12946.03
0.9986,0.0014	-12947.47
0.9986,0.0014	-12960.59
0.9969,0.0031	-12961.11
0.9983,0.0017	-12954.19
0.9997,0.0003	-12946.05
0.9997,0.0003	-12946.08
0.9982,0.0018	-12966.89
0.9986,0.0014	-12947.48
0.9972,0.0028	-12949.27
0.9985,0.0015	-12947.52
0.9998,0.0002	-12945.97
0.9997,0.0003	-12946.00
0.9984,0.0016	-12954.15
0.9984,0.0016	-12947.71
0.9970,0.0030	-12966.90
0.9985,0.0015	-12947.55
0.9998,0.0002	-12945.97
0.9998,0.0002	-12945.97
0.9986,0.0014	-12954.02
0.9977,0.0023	-12954.63
0.9977,0.0023	-12960.74
0.9983,0.0017	-12947.85
0.9998,0.0002	-12945.95
0.9998,0.0002	-12945.93
0.9984,0.0016	-12947.69
0.9982,0.0018	-12948.00
0.9981,0.0019	-12948.09
0.9982,0.0018	-12954.24
0.9998,0.0002	-12945.98
0.9998,0.0002	-12962.90
0.9979,0.0021	-12973.02
0.9984,0.0016	-12947.65
0.9979,0.0021	-12966.82
0.9981,0.0019	-12948.09
0.9998,0.0002	-12945.94
0.9998,0.0002	-12945.90
0.9984,0.0016	-12947.66
0.9987,0.0013	-12947.29
0.9973,0.0027	-12960.89
0.9985,0.0015	-12954.05
0.9998,0.0002	-12945.92
0.9998,0.0002	-12945.91
0.9987,0.0013	-12967.24
0.9989,0.0011	-12953.89
0.9977,0.0023	-12960.72
0.9990,0.0010	-12960.72
0.9998,0.0002	-12954.40
0.9998,0.0002	-12945.87
0.9986,0.0014	-12960.59
0.9988,0.0012	-12947.15
0.9973,0.0027	-12960.93
0.9985,0.0015	-12960.57
0.9998,0.0002	-12954.42
0.9998,0.0002	-12945.91
0.9987,0.0013	-12953.98
0.9985,0.0015	-12947.56
0.9973,0.0027	-12972.74
0.9986,0.0014	-12954.03
0.9998,0.0002	-12945.95
0.9998,0.0002	-12945.87
0.9986,0.0014	-12953.99
0.9984,0.0016	-12947.72
0.9976,0.0024	-12948.71
0.9982,0.0018	-12960.59
0.9998,0.0002	-12945.93
0.9998,0.0002	-12945.88
0.9985,0.0015	-12960.58
0.9986,0.0014	-12954.01
0.9977,0.0023	-12948.52
0.9984,0.0016	-12947.64
0.9998,0.0002	-12954.48
0.9998,0.0002	-12954.54
0.9985,0.0015	-12960.57
0.9988,0.0012	-12947.21
0.9981,0.0019	-12966.88
0.9984,0.0016	-12954.16
0.9998,0.0002	-12945.87
0.9998,0.0002	-12945.94
0.9983,0.0017	-12954.21
0.9987,0.0013	-12953.97
0.9985,0.0015	-12947.55
0.9986,0.0014	-12954.02
0.9999,0.0001	-12945.86
0.9998,0.0002	-12945.94
0.9982,0.0018	-12947.89
0.9988,0.0012	-12953.92
0.9981,0.0019	-12954.31
0.9988,0.0012	-12947.24
0.9999,0.0001	-12945.86
0.9998,0.0002	-12945.94
0.9987,0.0013	-12947.30
0.9987,0.0013	-12953.95
0.9978,0.0022	-12954.58
0.9989,0.0011	-12953.88
0.9998,0.0002	-12945.87
0.9998,0.0002	-12945.90
0.9988,0.0012	-12953.91
0.9986,0.0014	-12954.00
0.9976,0.0024	-12948.72
0.9990,0.0010	-12946.96
0.9998,0.0002	-12945.90
0.9998,0.0002	-12954.50
0.9988,0.0012	-12953.92
0.9987,0.0013	-12947.37
0.9975,0.0025	-12960.79
0.9991,0.0009	-12946.82
0.9998,0.0002	-12945.93
0.9997,0.0003	-12946.02
0.9989,0.0011	-12953.88
0.9986,0.0014	-12954.01
0.9976,0.0024	-12954.75
0.9989,0.0011	-12960.71
0.9998,0.0002	-12945.92
0.9998,0.0002	-12945.97
0.9989,0.0011	-12953.87
0.9984,0.0016	-12960.57
0.9979,0.0021	-12954.51
0.9990,0.0010	-12946.93
0.9998,0.0002	-12954.49
0.9997,0.0003	-12946.10
0.9988,0.0012	-12947.17
0.9985,0.0015	-12960.58
0.9980,0.0020	-12960.64
0.9987,0.0013	-12953.95
0.9998,0.0002	-12945.96
0.9996,0.0004	-12946.13
0.9989,0.0011	-12953.88
0.9985,0.0015	-12947.54
0.9976,0.0024	-12960.77
0.9986,0.0014	-12947.42
0.9998,0.0002	-12945.93
0.9996,0.0004	-12946.20
0.9988,0.0012	-12953.91
0.9987,0.0013	-12947.35
0.9976,0.0024	-12948.66
0.9988,0.0012	-12947.16
0.9998,0.0002	-12945.91
0.9996,0.0004	-12946.20
0.9985,0.0015	-12954.08
0.9984,0.0016	-12966.98
0.9979,0.0021	-12948.38
0.9986,0.0014	-12947.43
0.9998,0.0002	-12945.96
0.9996,0.0004	-12946.12
0.9985,0.0015	-12954.06
0.9981,0.0019	-12954.38
0.9975,0.0025	-12954.80
0.9987,0.0013	-12947.30
0.9997,0.0003	-12946.00
0.9997,0.0003	-12946.08
0.9988,0.0012	-12953.92
0.9982,0.0018	-12947.98
0.9983,0.0017	-12954.19
0.9989,0.0011	-12953.87
0.9997,0.0003	-12946.01
0.9996,0.0004	-12946.13
0.9988,0.0012	-12947.22
0.9982,0.0018	-12954.25
0.9986,0.0014	-12947.41
0.9988,0.0012	-12947.13
0.9997,0.0003	-12946.04
0.9996,0.0004	-12946.22
0.9990,0.0010	-12953.84
0.9985,0.0015	-12947.57
0.9983,0.0017	-12947.83
0.9989,0.0011	-12960.71
0.9997,0.0003	-12946.01
0.9993,0.0007	-12946.52
0.9992,0.0008	-12953.82
0.9985,0.0015	-12954.09
0.9982,0.0018	-12954.24
0.9988,0.0012	-12953.90
0.9997,0.0003	-12954.22
0.9995,0.0005	-12946.25
0.9993,0.0007	-12946.57
0.9982,0.0018	-12947.96
0.9984,0.0016	-12947.66
0.9987,0.0013	-12947.28
0.9997,0.0003	-12946.10
0.9996,0.0004	-12946.22
0.9993,0.0007	-12946.57
0.9987,0.0013	-12960.61
0.9985,0.0015	-12954.07
0.9985,0.0015	-12954.05
0.9996,0.0004	-12946.19
0.9994,0.0006	-12946.39
0.9992,0.0008	-12946.70
0.9989,0.0011	-12953.88
0.9984,0.0016	-12967.03
0.9982,0.0018	-12947.98
0.9996,0.0004	-12946.22
0.9995,0.0005	-12946.29
0.9994,0.0006	-12946.49
0.9990,0.0010	-12953.85
0.9986,0.0014	-12947.41
0.9980,0.0020	-12954.44
0.9996,0.0004	-12946.24
0.9995,0.0005	-12946.27
0.9993,0.0007	-12946.52
0.9987,0.0013	-12953.94
0.9984,0.0016	-12954.16
0.9981,0.0019	-12954.37
0.9994,0.0006	-12953.86
0.9995,0.0005	-12946.30
0.9994,0.0006	-12946.45
0.9989,0.0011	-12953.87
0.9984,0.0016	-12954.13
0.9981,0.0019	-12948.02
0.9995,0.0005	-12946.27
0.9994,0.0006	-12961.25
0.9993,0.0007	-12953.82
0.9991,0.0009	-12953.83
0.9985,0.0015	-12954.07
0.9984,0.0016	-12954.16
0.9996,0.0004	-12946.15
0.9995,0.0005	-12946.26
0.9994,0.0006	-12953.84
0.9989,0.0011	-12947.03
0.9987,0.0013	-12947.32
0.9985,0.0015	-12967.10
0.9997,0.0003	-12946.03
0.9995,0.0005	-12953.91
0.9994,0.0006	-12953.84
0.9985,0.0015	-12954.06
0.9988,0.0012	-12953.91
0.9984,0.0016	-12947.73
0.9997,0.0003	-12946.03
0.9995,0.0005	-12946.28
0.9993,0.0007	-12953.82
0.9983,0.0017	-12954.17
0.9990,0.0010	-12946.98
0.9982,0.0018	-12960.58
0.9998,0.0002	-12945.98
0.9995,0.0005	-12953.92
0.9992,0.0008	-12946.66
0.9985,0.0015	-12947.56
0.9991,0.0009	-12946.85
0.9980,0.0020	-12954.40
0.9998,0.0002	-12945.99
0.9995,0.0005	-12946.25
0.9993,0.0007	-12946.58
0.9987,0.0013	-12953.97
0.9991,0.0009	-12946.87
0.9980,0.0020	-12973.08
0.9997,0.0003	-12946.03
0.9995,0.0005	-12946.25
0.9995,0.0005	-12946.30
0.9989,0.0011	-12947.12
0.9992,0.0008	-12946.74
0.9985,0.0015	-12947.61
0.9997,0.0003	-12954.22
0.9994,0.0006	-12946.37
0.9995,0.0005	-12946.29
0.9989,0.0011	-12947.06
0.9993,0.0007	-12946.61
0.9984,0.0016	-12954.10
0.9997,0.0003	-12946.05
0.9995,0.0005	-12946.31
0.9995,0.0005	-12946.36
0.9991,0.0009	-12946.79
0.9993,0.0007	-12946.62
0.9980,0.0020	-12960.62
0.9997,0.0003	-12946.07
0.9995,0.0005	-12946.32
0.9995,0.0005	-12953.94
0.9989,0.0011	-12947.06
0.9991,0.0009	-12946.79
0.9976,0.0024	-12960.77
0.9997,0.0003	-12946.06
0.9994,0.0006	-12946.38
0.9995,0.0005	-12946.35
0.9991,0.0009	-12953.83
0.9992,0.0008	-12946.72
0.9969,0.0031	-12966.91
0.9998,0.0002	-12945.97
0.9994,0.0006	-12953.84
0.9996,0.0004	-12946.21
0.9988,0.0012	-12947.25
0.9992,0.0008	-12946.73
0.9964,0.0036	-12955.80
0.9998,0.0002	-12945.92
0.9995,0.0005	-12946.37
0.9995,0.0005	-12946.25
0.9990,0.0010	-12946.97
0.9991,0.0009	-12946.76
0.9975,0.0025	-12960.79
0.9998,0.0002	-12945.89
0.9995,0.0005	-12946.27
0.9996,0.0004	-12946.24
0.9990,0.0010	-12946.89
0.9989,0.0011	-12947.08
0.9975,0.0025	-12966.81
0.9998,0.0002	-12945.89
0.9996,0.0004	-12946.16
0.9996,0.0004	-12946.15
0.9991,0.0009	-12946.77
0.9990,0.0010	-12946.94
0.9976,0.0024	-12948.65
0.9998,0.0002	-12945.87
0.9996,0.0004	-12946.16
0.9997,0.0003	-12946.03
0.9993,0.0007	-12946.58
0.9990,0.0010	-12953.84
0.9971,0.0029	-12966.86
0.9998,0.0002	-12945.88
0.9995,0.0005	-12953.90
0.9998,0.0002	-12954.29
0.9994,0.0006	-12946.48
0.9990,0.0010	-12946.96
0.9972,0.0028	-12960.95
0.9999,0.0001	-12945.86
0.9995,0.0005	-12946.36
0.9997,0.0003	-12946.00
0.9994,0.0006	-12946.41
0.9989,0.0011	-12960.67
0.9969,0.0031	-12949.54
0.9998,0.0002	-12945.89
0.9994,0.0006	-12946.43
0.9997,0.0003	-12946.01
0.9991,0.0009	-12946.76
0.9989,0.0011	-12960.70
0.9975,0.0025	-12948.81
0.9999,0.0001	-12945.83
0.9994,0.0006	-12961.20
0.9997,0.0003	-12946.01
0.9992,0.0008	-12946.75
0.9991,0.0009	-12946.82
0.9967,0.0033	-12955.60
0.9999,0.0001	-12945.86
0.9995,0.0005	-12946.34
0.9997,0.0003	-12946.03
0.9992,0.0008	-12946.73
0.9991,0.0009	-12946.84
0.9966,0.0034	-12961.31
0.9999,0.0001	-12945.86
0.9995,0.0005	-12953.92
0.9997,0.0003	-12946.10
0.9991,0.0009	-12953.83
0.9991,0.0009	-12946.80
0.9968,0.0032	-12955.42
0.9999,0.0001	-12945.85
0.9996,0.0004	-12946.16
0.9997,0.0003	-12946.06
0.9993,0.0007	-12953.82
0.9992,0.0008	-12946.63
0.9975,0.0025	-12966.80
0.9998,0.0002	-12945.87
0.9996,0.0004	-12946.21
0.9997,0.0003	-12946.01
0.9993,0.0007	-12946.61
0.9993,0.0007	-12946.62
0.9971,0.0029	-12955.18
0.9998,0.0002	-12945.87
0.9995,0.0005	-12946.25
0.9998,0.0002	-12962.75
0.9992,0.0008	-12953.82
0.9993,0.0007	-12946.57
0.9970,0.0030	-12966.89
0.9998,0.0002	-12945.94
0.9995,0.0005	-12953.91
0.9998,0.0002	-12945.98
0.9993,0.0007	-12953.82
0.9993,0.0007	-12946.55
0.9965,0.0035	-12955.79
0.9998,0.0002	-12945.98
0.9995,0.0005	-12946.31
0.9998,0.0002	-12945.96
0.9994,0.0006	-12946.48
0.9993,0.0007	-12953.82
0.9960,0.0040	-12956.25
0.9997,0.0003	-12946.05
0.9994,0.0006	-12953.84
0.9998,0.0002	-12945.97
0.9995,0.0005	-12946.36
0.9992,0.0008	-12953.82
0.9953,0.0047	-12962.31
0.9998,0.0002	-12945.96
0.9993,0.0007	-12953.83
0.9997,0.0003	-12954.21
0.9994,0.0006	-12946.45
0.9992,0.0008	-12946.64
0.9956,0.0044	-12956.63
0.9998,0.0002	-12945.92
0.9995,0.0005	-12953.89
0.9996,0.0004	-12946.13
0.9995,0.0005	-12953.89
0.9992,0.0008	-12953.82
0.9961,0.0039	-12956.13
0.9998,0.0002	-12954.61
0.9996,0.0004	-12946.18
0.9997,0.0003	-12954.17
0.9994,0.0006	-12953.85
0.9993,0.0007	-12953.82
0.9958,0.0042	-12961.96
0.9998,0.0002	-12945.91
0.9996,0.0004	-12946.13
0.9997,0.0003	-12946.08
0.9994,0.0006	-12946.39
0.9992,0.0008	-12960.95
0.9964,0.0036	-12961.49
0.9998,0.0002	-12945.98
0.9996,0.0004	-12946.13
0.9997,0.0003	-12946.07
0.9995,0.0005	-12946.33
0.9992,0.0008	-12953.82
0.9965,0.0035	-12967.05
0.9997,0.0003	-12945.99
0.9997,0.0003	-12954.12
0.9997,0.0003	-12946.07
0.9994,0.0006	-12946.42
0.9992,0.0008	-12946.68
0.9958,0.0042	-12956.44
0.9997,0.0003	-12946.09
0.9997,0.0003	-12946.09
0.9997,0.0003	-12946.07
0.9994,0.0006	-12953.84
0.9992,0.0008	-12946.63
0.9967,0.0033	-12966.97
0.9996,0.0004	-12946.24
0.9997,0.0003	-12954.09
0.9997,0.0003	-12946.08
0.9994,0.0006	-12953.84
0.9994,0.0006	-12946.44
0.9968,0.0032	-12955.47
0.9996,0.0004	-12946.12
0.9997,0.0003	-12946.02
0.9997,0.0003	-12946.01
0.9995,0.0005	-12953.92
0.9994,0.0006	-12946.44
0.9970,0.0030	-12955.23
0.9997,0.0003	-12946.09
0.9997,0.0003	-12946.05
0.9998,0.0002	-12954.33
0.9994,0.0006	-12946.40
0.9995,0.0005	-12953.94
0.9973,0.0027	-12966.82
0.9997,0.0003	-12946.04
0.9997,0.0003	-12946.11
0.9998,0.0002	-12945.94
0.9994,0.0006	-12946.40
0.9994,0.0006	-12946.38
0.9976,0.0024	-12954.73
0.9997,0.0003	-12946.07
0.9998,0.0002	-12954.33
0.9998,0.0002	-12945.97
0.9994,0.0006	-12946.43
0.9994,0.0006	-12946.48
0.9982,0.0018	-12954.29
0.9996,0.0004	-12946.18
0.9998,0.0002	-12945.95
0.9998,0.0002	-12945.92
0.9994,0.0006	-12946.41
0.9993,0.0007	-12946.53
0.9977,0.0023	-12954.63
0.9996,0.0004	-12946.20
0.9998,0.0002	-12945.91
0.9998,0.0002	-12954.50
0.9994,0.0006	-12953.87
0.9994,0.0006	-12946.44
0.9975,0.0025	-12960.80
0.9996,0.0004	-12946.17
0.9998,0.0002	-12954.41
0.9998,0.0002	-12945.88
0.9995,0.0005	-12946.28
0.9993,0.0007	-12946.50
0.9980,0.0020	-12960.62
0.9996,0.0004	-12946.19
0.9998,0.0002	-12945.94
0.9998,0.0002	-12945.91
0.9996,0.0004	-12953.98
0.9995,0.0005	-12946.25
0.9982,0.0018	-12960.58
0.9996,0.0004	-12961.75
0.9997,0.0003	-12946.02
0.9998,0.0002	-12945.95
0.9995,0.0005	-12946.31
0.9995,0.0005	-12946.30
0.9978,0.0022	-12966.80
0.9996,0.0004	-12954.03
0.9998,0.0002	-12945.98
0.9998,0.0002	-12945.95
0.9995,0.0005	-12946.34
0.9995,0.0005	-12953.88
0.9977,0.0023	-12960.73
0.9996,0.0004	-12946.19
0.9998,0.0002	-12945.91
0.9998,0.0002	-12945.97
0.9992,0.0008	-12946.65
0.9997,0.0003	-12946.10
0.9977,0.0023	-12948.52
0.9996,0.0004	-12946.13
0.9998,0.0002	-12945.90
0.9997,0.0003	-12946.04
0.9992,0.0008	-12953.82
0.9997,0.0003	-12946.01
0.9978,0.0022	-12960.69
0.9996,0.0004	-12946.12
0.9998,0.0002	-12945.90
0.9997,0.0003	-12946.03
0.9993,0.0007	-12946.50
0.9998,0.0002	-12945.91
0.9981,0.0019	-12973.16
0.9997,0.0003	-12946.10
0.9998,0.0002	-12954.51
0.9996,0.0004	-12946.14
0.9993,0.0007	-12946.61
0.9998,0.0002	-12945.92
0.9975,0.0025	-12972.79
0.9997,0.0003	-12946.11
0.9997,0.0003	-12946.02
0.9996,0.0004	-12946.12
0.9993,0.0007	-12946.52
0.9998,0.0002	-12945.89
0.9979,0.0021	-12960.65
0.9997,0.0003	-12946.09
0.9996,0.0004	-12946.14
0.9997,0.0003	-12946.08
0.9994,0.0006	-12946.41
0.9998,0.0002	-12945.97
0.9977,0.0023	-12948.57
0.9996,0.0004	-12953.96
0.9997,0.0003	-12946.09
0.9996,0.0004	-12946.17
0.9994,0.0006	-12946.43
0.9997,0.0003	-12946.10
0.9977,0.0023	-12966.80
0.9995,0.0005	-12953.94
0.9997,0.0003	-12946.09
0.9996,0.0004	-12954.07
0.9994,0.0006	-12946.45
0.9997,0.0003	-12946.10
0.9975,0.0025	-12966.80
0.9995,0.0005	-12946.31
0.9997,0.0003	-12946.04
0.9997,0.0003	-12946.11
0.9993,0.0007	-12946.58
0.9996,0.0004	-12946.14
0.9974,0.0026	-12960.88
0.9994,0.0006	-12946.43
0.9997,0.0003	-12946.01
0.9996,0.0004	-12946.22
0.9993,0.0007	-12953.83
0.9996,0.0004	-12946.16
0.9979,0.0021	-12954.52
0.9995,0.0005	-12946.30
0.9998,0.0002	-12945.98
0.9994,0.0006	-12953.87
0.9992,0.0008	-12946.62
0.9995,0.0005	-12946.26
0.9974,0.0026	-12948.95
0.9995,0.0005	-12946.26
0.9998,0.0002	-12945.97
0.9996,0.0004	-12946.23
0.9993,0.0007	-12953.82
0.9995,0.0005	-12946.35
0.9976,0.0024	-12960.75
0.9995,0.0005	-12946.28
0.9997,0.0003	-12946.00
0.9995,0.0005	-12946.26
0.9991,0.0009	-12946.77
0.9994,0.0006	-12946.46
0.9978,0.0022	-12954.56
0.9996,0.0004	-12946.19
0.9998,0.0002	-12945.95
0.9994,0.0006	-12953.84
0.9990,0.0010	-12946.98
0.9993,0.0007	-12953.82
0.9982,0.0018	-12948.00
0.9996,0.0004	-12954.05
0.9998,0.0002	-12945.96
0.9993,0.0007	-12946.59
0.9990,0.0010	-12946.93
0.9991,0.0009	-12953.83
0.9978,0.0022	-12948.51
0.9994,0.0006	-12953.84
0.9998,0.0002	-12954.33
0.9994,0.0006	-12953.87
0.9990,0.0010	-12960.72
0.9990,0.0010	-12947.00
0.9977,0.0023	-12948.54
0.9993,0.0007	-12946.57
0.9998,0.0002	-12945.99
0.9995,0.0005	-12946.30
0.9987,0.0013	-12953.98
0.9991,0.0009	-12967.78
0.9981,0.0019	-12954.35
0.9994,0.0006	-12953.84
0.9998,0.0002	-12945.96
0.9996,0.0004	-12946.17
0.9985,0.0015	-12960.58
0.9991,0.0009	-12946.80
0.9978,0.0022	-12948.41
0.9993,0.0007	-12946.60
0.9997,0.0003	-12946.03
0.9995,0.0005	-12946.31
0.9981,0.0019	-12954.35
0.9991,0.0009	-12953.82
0.9975,0.0025	-12948.81
0.9994,0.0006	-12946.49
0.9997,0.0003	-12946.04
0.9995,0.0005	-12946.27
0.9982,0.0018	-12966.91
0.9991,0.0009	-12946.83
0.9979,0.0021	-12960.65
0.9993,0.0007	-12946.58
0.9997,0.0003	-12946.08
0.9995,0.0005	-12946.33
0.9977,0.0023	-12954.64
0.9993,0.0007	-12953.83
0.9983,0.0017	-12954.23
0.9994,0.0006	-12953.85
0.9997,0.0003	-12946.11
0.9993,0.0007	-12946.55
0.9979,0.0021	-12948.35
0.9993,0.0007	-12946.57
0.9980,0.0020	-12960.64
0.9994,0.0006	-12946.39
0.9997,0.0003	-12946.10
0.9993,0.0007	-12946.50
0.9977,0.0023	-12954.62
0.9994,0.0006	-12946.38
0.9979,0.0021	-12960.64
0.9995,0.0005	-12946.26
0.9997,0.0003	-12946.07
0.9994,0.0006	-12946.47
0.9976,0.0024	-12960.79
0.9995,0.0005	-12953.88
0.9979,0.0021	-12954.48
0.9995,0.0005	-12946.32
0.9997,0.0003	-12946.07
0.9993,0.0007	-12946.51
0.9971,0.0029	-12949.29
0.9994,0.0006	-12946.50
0.9975,0.0025	-12966.80
0.9993,0.0007	-12946.56
0.9997,0.0003	-12946.08
0.9992,0.0008	-12946.68
0.9971,0.0029	-12961.00
0.9994,0.0006	-12946.39
0.9975,0.0025	-12948.88
0.9994,0.0006	-12953.86
0.9996,0.0004	-12946.15
0.9991,0.0009	-12953.83
0.9965,0.0035	-12961.41
0.9995,0.0005	-12946.32
0.9971,0.0029	-12949.28
0.9995,0.0005	-12946.37
0.9996,0.0004	-12946.12
0.9989,0.0011	-12953.89
0.9960,0.0040	-12950.68
0.9994,0.0006	-12961.34
0.9978,0.0022	-12954.54
0.9994,0.0006	-12946.49
0.9996,0.0004	-12946.14
0.9991,0.0009	-12946.80
0.9958,0.0042	-12956.46
0.9993,0.0007	-12946.59
0.9980,0.0020	-12954.45
0.9994,0.0006	-12946.48
0.9997,0.0003	-12954.17
0.9988,0.0012	-12947.14
0.9964,0.0036	-12978.35
0.9991,0.0009	-12946.81
0.9982,0.0018	-12947.98
0.9993,0.0007	-12946.62
0.9997,0.0003	-12946.08
0.9986,0.0014	-12947.40
0.9961,0.0039	-12961.68
0.9991,0.0009	-12953.83
0.9986,0.0014	-12947.41
0.9991,0.0009	-12946.84
0.9996,0.0004	-12946.17
0.9986,0.0014	-12960.59
0.9961,0.0039	-12950.65
0.9992,0.0008	-12953.82
0.9987,0.0013	-12947.30
0.9992,0.0008	-12946.73
0.9996,0.0004	-12946.14
0.9984,0.0016	-12947.70
0.9959,0.0041	-12956.35
0.9990,0.0010	-12946.95
0.9987,0.0013	-12953.96
0.9991,0.0009	-12953.82
0.9996,0.0004	-12946.17
0.9982,0.0018	-12947.89
0.9958,0.0042	-12972.88
0.9989,0.0011	-12947.05
0.9986,0.0014	-12947.42
0.9992,0.0008	-12953.82
0.9996,0.0004	-12946.23
0.9984,0.0016	-12954.11
0.9948,0.0052	-12962.74
0.9988,0.0012	-12953.90
0.9989,0.0011	-12947.11
0.9993,0.0007	-12961.12
0.9996,0.0004	-12946.17
0.9980,0.0020	-12954.40
0.9954,0.0046	-12978.38
0.9990,0.0010	-12953.85
0.9986,0.0014	-12954.00
0.9995,0.0005	-12946.32
0.9995,0.0005	-12946.30
0.9984,0.0016	-12947.68
0.9959,0.0041	-12956.35
0.9990,0.0010	-12953.85
0.9985,0.0015	-12954.10
0.9995,0.0005	-12953.92
0.9995,0.0005	-12946.31
0.9980,0.0020	-12948.20
0.9959,0.0041	-12978.33
0.9990,0.0010	-12946.97
0.9987,0.0013	-12947.34
0.9995,0.0005	-12946.34
0.9994,0.0006	-12946.48
0.9980,0.0020	-12954.40
0.9954,0.0046	-12978.39
0.9988,0.0012	-12974.18
0.9987,0.0013	-12947.36
0.9994,0.0006	-12946.45
0.9995,0.0005	-12946.28
0.9983,0.0017	-12960.58
0.9943,0.0057	-12968.37
0.9989,0.0011	-12953.88
0.9984,0.0016	-12947.71
0.9994,0.0006	-12946.49
0.9994,0.0006	-12946.42
0.9984,0.0016	-12954.14
0.9941,0.0059	-12968.53
0.9987,0.0013	-12953.96
0.9986,0.0014	-12947.50
0.9994,0.0006	-12946.39
0.9994,0.0006	-12946.47
0.9982,0.0018	-12947.91
0.9937,0.0063	-12968.83
0.9987,0.0013	-12953.99
0.9983,0.0017	-12954.23
0.9995,0.0005	-12946.34
0.9992,0.0008	-12953.82
0.9983,0.0017	-12954.18
0.9936,0.0064	-12958.78
0.9984,0.0016	-12947.70
0.9981,0.0019	-12954.34
0.9995,0.0005	-12946.27
0.9992,0.0008	-12953.82
0.9985,0.0015	-12947.54
0.9924,0.0076	-12974.84
0.9980,0.0020	-12954.39
0.9978,0.0022	-12954.54
0.9995,0.0005	-12961.54
0.9991,0.0009	-12946.78
0.9986,0.0014	-12947.47
0.9936,0.0064	-12968.90
0.9982,0.0018	-12954.29
0.9984,0.0016	-12947.68
0.9996,0.0004	-12946.13
0.9990,0.0010	-12946.96
0.9984,0.0016	-12947.68
0.9935,0.0065	-12974.03
0.9983,0.0017	-12947.86
0.9982,0.0018	-12947.91
0.9996,0.0004	-12954.07
0.9992,0.0008	-12968.11
0.9987,0.0013	-12953.97
0.9931,0.0069	-12974.30
0.9984,0.0016	-12954.11
0.9987,0.0013	-12947.27
0.9997,0.0003	-12946.08
0.9992,0.0008	-12953.82
0.9985,0.0015	-12954.09
0.9938,0.0062	-12963.72
0.9981,0.0019	-12954.32
0.9987,0.0013	-12953.97
0.9996,0.0004	-12946.12
0.9993,0.0007	-12953.82
0.9986,0.0014	-12947.46
0.9937,0.0063	-12958.67
0.9984,0.0016	-12954.12
0.9986,0.0014	-12954.03
0.9997,0.0003	-12946.08
0.9994,0.0006	-12946.47
0.9984,0.0016	-12960.57
0.9938,0.0062	-12963.70
0.9985,0.0015	-12947.55
0.9984,0.0016	-12967.00
0.9997,0.0003	-12946.09
0.9994,0.0006	-12953.85
0.9980,0.0020	-12948.26
0.9946,0.0054	-12978.59
0.9988,0.0012	-12947.21
0.9987,0.0013	-12953.99
0.9997,0.0003	-12946.07
0.9994,0.0006	-12953.85
0.9975,0.0025	-12948.79
0.9944,0.0056	-12952.72
0.9988,0.0012	-12947.17
0.9989,0.0011	-12953.88
0.9998,0.0002	-12945.94
0.9995,0.0005	-12946.35
0.9972,0.0028	-12978.61
0.9941,0.0059	-12958.24
0.9990,0.0010	-12947.00
0.9989,0.0011	-12960.71
0.9998,0.0002	-12945.99
0.9996,0.0004	-12946.21
0.9969,0.0031	-12961.12
0.9947,0.0053	-12968.11
0.9991,0.0009	-12953.83
0.9989,0.0011	-12960.69
0.9997,0.0003	-12946.10
0.9996,0.0004	-12946.14
0.9961,0.0039	-12956.20
0.9942,0.0058	-12958.12
0.9992,0.0008	-12953.82
0.9989,0.0011	-12947.12
0.9996,0.0004	-12946.18
0.9996,0.0004	-12946.13
0.9962,0.0038	-12950.44
0.9938,0.0062	-12984.01
0.9992,0.0008	-12946.75
0.9990,0.0010	-12947.00
0.9996,0.0004	-12946.16
0.9996,0.0004	-12946.13
0.9972,0.0028	-12949.26
0.9929,0.0071	-12964.53
0.9990,0.0010	-12946.89
0.9991,0.0009	-12953.83
0.9997,0.0003	-12946.10
0.9996,0.0004	-12946.15
0.9972,0.0028	-12960.97
0.9932,0.0068	-12964.28
0.9988,0.0012	-12953.90
0.9992,0.0008	-12946.68
0.9996,0.0004	-12962.00
0.9996,0.0004	-12946.13
0.9971,0.0029	-12961.04
0.9919,0.0081	-12965.59
0.9988,0.0012	-12947.22
0.9994,0.0006	-12953.84
0.9996,0.0004	-12953.96
0.9997,0.0003	-12946.06
0.9964,0.0036	-12955.88
0.9943,0.0057	-12978.71
0.9992,0.0008	-12946.70
0.9996,0.0004	-12961.71
0.9994,0.0006	-12946.37
0.9997,0.0003	-12946.02
0.9960,0.0040	-12961.80
0.9937,0.0063	-12973.89
0.9992,0.0008	-12946.68
0.9996,0.0004	-12946.16
0.9996,0.0004	-12946.22
0.9997,0.0003	-12946.11
0.9949,0.0051	-12962.72
0.9946,0.0054	-12968.19
0.9992,0.0008	-12946.64
0.9997,0.0003	-12946.02
0.9996,0.0004	-12954.01
0.9996,0.0004	-12946.15
0.9962,0.0038	-12950.47
0.9938,0.0062	-12963.67
0.9992,0.0008	-12946.74
0.9997,0.0003	-12946.02
0.9994,0.0006	-12946.46
0.9996,0.0004	-12954.04
0.9970,0.0030	-12966.88
0.9930,0.0070	-12974.39
0.9992,0.0008	-12953.82
0.9997,0.0003	-12954.15
0.9994,0.0006	-12946.44
0.9996,0.0004	-12946.20
0.9968,0.0032	-12955.50
0.9935,0.0065	-12958.98
0.9991,0.0009	-12960.85
0.9997,0.0003	-12946.08
0.9994,0.0006	-12953.85
0.9996,0.0004	-12946.21
0.9962,0.0038	-12950.47
0.9928,0.0072	-12999.14
0.9991,0.0009	-12960.86
0.9997,0.0003	-12946.02
0.9994,0.0006	-12946.39
0.9996,0.0004	-12961.82
0.9956,0.0044	-12967.51
0.9929,0.0071	-12964.54
0.9990,0.0010	-12946.94
0.9997,0.0003	-12946.06
0.9995,0.0005	-12953.92
0.9996,0.0004	-12946.17
0.9953,0.0047	-12978.39
0.9925,0.0075	-12984.48
0.9991,0.0009	-12946.79
0.9997,0.0003	-12946.05
0.9995,0.0005	-12946.36
0.9997,0.0003	-12946.12
0.9946,0.0054	-12962.96
0.9953,0.0047	-12967.67
0.9990,0.0010	-12960.76
0.9996,0.0004	-12946.14
0.9995,0.0005	-12961.62
0.9996,0.0004	-12946.18
0.9945,0.0055	-12973.42
0.9958,0.0042	-12956.49
0.9990,0.0010	-12953.85
0.9996,0.0004	-12961.89
0.9996,0.0004	-12946.14
0.9996,0.0004	-12946.16
0.9955,0.0045	-12956.77
0.9957,0.0043	-12967.43
0.9989,0.0011	-12947.06
0.9995,0.0005	-12953.91
0.9996,0.0004	-12946.13
0.9997,0.0003	-12946.09
0.9965,0.0035	-12967.07
0.9961,0.0039	-12961.70
0.9989,0.0011	-12947.12
0.9994,0.0006	-12946.49
0.9996,0.0004	-12946.23
0.9997,0.0003	-12946.11
0.9976,0.0024	-12972.83
0.9958,0.0042	-12967.37
0.9990,0.0010	-12953.84
0.9994,0.0006	-12946.44
0.9995,0.0005	-12946.25
0.9995,0.0005	-12946.30
0.9977,0.0023	-12966.80
0.9963,0.0037	-12955.92
0.9990,0.0010	-12946.95
0.9994,0.0006	-12946.49
0.9996,0.0004	-12946.22
0.9996,0.0004	-12946.22
0.9977,0.0023	-12960.75
0.9966,0.0034	-12972.70
0.9991,0.0009	-12960.89
0.9994,0.0006	-12946.44
0.9995,0.0005	-12953.92
0.9997,0.0003	-12946.10
0.9975,0.0025	-12960.83
0.9963,0.0037	-12961.54
0.9989,0.0011	-12947.00
0.9994,0.0006	-12953.87
0.9996,0.0004	-12946.21
0.9997,0.0003	-12946.04
0.9976,0.0024	-12966.80
0.9960,0.0040	-12961.75
0.9989,0.0011	-12947.10
0.9993,0.0007	-12946.58
0.9996,0.0004	-12946.15
0.9997,0.0003	-12954.23
0.9976,0.0024	-12960.76
0.9958,0.0042	-12961.91
0.9986,0.0014	-12954.03
0.9993,0.0007	-12946.55
0.9996,0.0004	-12946.18
0.9998,0.0002	-12945.99
0.9967,0.0033	-12961.26
0.9951,0.0049	-12957.22
0.9983,0.0017	-12947.86
0.9992,0.0008	-12946.69
0.9996,0.0004	-12946.13
0.9997,0.0003	-12954.26
0.9965,0.0035	-12972.71
0.9959,0.0041	-12961.85
0.9985,0.0015	-12954.07
0.9990,0.0010	-12946.93
0.9996,0.0004	-12946.13
0.9997,0.0003	-12954.20
0.9969,0.0031	-12966.92
0.9963,0.0037	-12961.57
0.9985,0.0015	-12947.61
0.9992,0.0008	-12946.71
0.9996,0.0004	-12946.14
0.9997,0.0003	-12946.10
0.9969,0.0031	-12949.56
0.9969,0.0031	-12961.16
0.9985,0.0015	-12947.63
0.9992,0.0008	-12946.72
0.9996,0.0004	-12946.12
0.9997,0.0003	-12954.11
0.9966,0.0034	-12961.33
0.9977,0.0023	-12954.69
0.9986,0.0014	-12953.99
0.9992,0.0008	-12953.82
0.9996,0.0004	-12954.04
0.9997,0.0003	-12946.03
0.9971,0.0029	-12955.21
0.9978,0.0022	-12948.39
0.9985,0.0015	-12954.10
0.9992,0.0008	-12946.74
0.9995,0.0005	-12946.26
0.9998,0.0002	-12945.99
0.9969,0.0031	-12966.91
0.9976,0.0024	-12954.78
0.9983,0.0017	-12960.58
0.9992,0.0008	-12953.82
0.9996,0.0004	-12946.16
0.9998,0.0002	-12945.96
0.9969,0.0031	-12961.17
0.9973,0.0027	-12949.07
0.9983,0.0017	-12960.58
0.9990,0.0010	-12946.96
0.9996,0.0004	-12946.18
0.9998,0.0002	-12945.91
0.9973,0.0027	-12949.06
0.9975,0.0025	-12960.80
0.9985,0.0015	-12954.07
0.9988,0.0012	-12947.13
0.9994,0.0006	-12946.43
0.9998,0.0002	-12945.94
0.9984,0.0016	-12954.16
0.9978,0.0022	-12966.80
0.9982,0.0018	-12947.89
0.9992,0.0008	-12946.71
0.9995,0.0005	-12953.92
0.9998,0.0002	-12945.90
0.9987,0.0013	-12953.95
0.9979,0.0021	-12948.36
0.9984,0.0016	-12954.10
0.9992,0.0008	-12953.82
0.9994,0.0006	-12946.43
0.9998,0.0002	-12945.88
0.9988,0.0012	-12947.15
0.9979,0.0021	-12966.82
0.9981,0.0019	-12954.36
0.9994,0.0006	-12953.86
0.9994,0.0006	-12946.44
0.9998,0.0002	-12945.88
0.9991,0.0009	-12953.82
0.9981,0.0019	-12954.32
0.9977,0.0023	-12960.74
0.9993,0.0007	-12946.61
0.9995,0.0005	-12946.36
0.9998,0.0002	-12954.41
0.9992,0.0008	-12946.72
0.9985,0.0015	-12954.08
0.9976,0.0024	-12966.80
0.9992,0.0008	-12960.97
0.9993,0.0007	-12946.62
0.9998,0.0002	-12945.97
0.9994,0.0006	-12946.46
0.9985,0.0015	-12960.57
0.9981,0.0019	-12960.60
0.9994,0.0006	-12946.43
0.9991,0.0009	-12946.78
0.9997,0.0003	-12946.00
0.9995,0.0005	-12961.46
0.9986,0.0014	-12960.58
0.9980,0.0020	-12960.63
0.9995,0.0005	-12946.37
0.9991,0.0009	-12946.82
0.9998,0.0002	-12945.97
0.9995,0.0005	-12946.30
0.9990,0.0010	-12953.84
0.9972,0.0028	-12960.99
0.9995,0.0005	-12946.36
0.9993,0.0007	-12961.01
0.9998,0.0002	-12945.90
0.9993,0.0007	-12953.83
0.9990,0.0010	-12946.89
0.9971,0.0029	-12949.40
0.9994,0.0006	-12968.72
0.9992,0.0008	-12946.65
0.9998,0.0002	-12945.91
0.9994,0.0006	-12946.45
0.9991,0.0009	-12946.82
0.9963,0.0037	-12955.95
0.9994,0.0006	-12953.87
0.9993,0.0007	-12946.60
0.9998,0.0002	-12945.93
0.9995,0.0005	-12946.33
0.9989,0.0011	-12960.71
0.9965,0.0035	-12972.71
0.9995,0.0005	-12946.35
0.9992,0.0008	-12946.75
0.9998,0.0002	-12954.43
0.9995,0.0005	-12946.31
0.9992,0.0008	-12946.66
0.9968,0.0032	-12955.43
0.9995,0.0005	-12946.31
0.9990,0.0010	-12960.73
0.9998,0.0002	-12945.93
0.9996,0.0004	-12946.24
0.9994,0.0006	-12946.47
0.9968,0.0032	-12961.20
0.9995,0.0005	-12961.55
0.9988,0.0012	-12953.90
0.9998,0.0002	-12945.93
0.9997,0.0003	-12946.10
0.9994,0.0006	-12946.47
0.9976,0.0024	-12966.80
0.9995,0.0005	-12946.26
0.9991,0.0009	-12953.83
0.9998,0.0002	-12945.90
0.9997,0.0003	-12946.06
0.9993,0.0007	-12946.58
0.9976,0.0024	-12948.66
0.9994,0.0006	-12946.42
0.9993,0.0007	-12946.60
0.9998,0.0002	-12945.89
0.9997,0.0003	-12954.21
0.9992,0.0008	-12946.71
0.9969,0.0031	-12966.91
0.9993,0.0007	-12946.58
0.9992,0.0008	-12946.70
0.9998,0.0002	-12945.96
0.9997,0.0003	-12946.00
0.9994,0.0006	-12953.84
0.9975,0.0025	-12954.86
0.9991,0.0009	-12946.79
0.9993,0.0007	-12946.59
0.9998,0.0002	-12945.94
0.9997,0.0003	-12946.05
0.9996,0.0004	-12946.24
0.9977,0.0023	-12954.67
0.9990,0.0010	-12946.99
0.9995,0.0005	-12946.36
0.9998,0.0002	-12945.99
0.9996,0.0004	-12946.15
0.9994,0.0006	-12953.85
0.9969,0.0031	-12961.13
0.9991,0.0009	-12960.85
0.9995,0.0005	-12946.26
0.9998,0.0002	-12945.98
0.9996,0.0004	-12954.07
0.9995,0.0005	-12953.89
0.9963,0.0037	-12955.92
0.9992,0.0008	-12946.72
0.9995,0.0005	-12946.31
0.9998,0.0002	-12945.97
0.9997,0.0003	-12946.11
0.9994,0.0006	-12946.47
0.9969,0.0031	-12949.57
0.9991,0.0009	-12946.82
0.9995,0.0005	-12946.26
0.9998,0.0002	-12945.94
0.9996,0.0004	-12946.20
0.9993,0.0007	-12946.55
0.9976,0.0024	-12948.71
0.9992,0.0008	-12946.70
0.9995,0.0005	-12946.35
0.9998,0.0002	-12945.97
0.9996,0.0004	-12946.23
0.9992,0.0008	-12946.66
0.9978,0.0022	-12966.81
0.9990,0.0010	-12946.88
0.9993,0.0007	-12953.83
0.9997,0.0003	-12946.02
0.9995,0.0005	-12953.89
0.9993,0.0007	-12946.54
0.9982,0.0018	-12954.26
0.9991,0.0009	-12946.84
0.9994,0.0006	-12946.42
0.9997,0.0003	-12946.03
0.9996,0.0004	-12946.19
0.9994,0.0006	-12946.39
0.9980,0.0020	-12948.25
0.9991,0.0009	-12946.80
0.9994,0.0006	-12946.39
0.9997,0.0003	-12946.07
0.9996,0.0004	-12946.12
0.9995,0.0005	-12946.28
0.9976,0.0024	-12948.70
0.9992,0.0008	-12953.82
0.9994,0.0006	-12946.48
0.9997,0.0003	-12946.11
0.9996,0.0004	-12946.16
0.9995,0.0005	-12946.27
0.9975,0.0025	-12948.84
0.9993,0.0007	-12946.57
0.9995,0.0005	-12946.37
0.9996,0.0004	-12954.02
0.9995,0.0005	-12946.25
0.9995,0.0005	-12953.93
0.9976,0.0024	-12960.75
0.9995,0.0005	-12946.26
0.9994,0.0006	-12946.43
0.9995,0.0005	-12946.28
0.9996,0.0004	-12946.18
0.9996,0.0004	-12946.23
0.9976,0.0024	-12960.78
0.9996,0.0004	-12946.20
0.9994,0.0006	-12953.84
0.9995,0.0005	-12953.95
0.9996,0.0004	-12946.23
0.9996,0.0004	-12946.19
0.9968,0.0032	-12966.96
