#isoforms=['ENSG00000101294.SE.1.A.up_ENSG00000101294.SE.1.A.SE1_ENSG00000101294.SE.1.A.dn','ENSG00000101294.SE.1.B.up_ENSG00000101294.SE.1.B.dn']	exon_lens=('ENSG00000101294.SE.1.A.up',99),('ENSG00000101294.SE.1.A.SE1',376),('ENSG00000101294.SE.1.A.dn',89),('ENSG00000101294.SE.1.B.up',99),('ENSG00000101294.SE.1.B.dn',89)	iters=5000	burn_in=500	lag=10	percent_accept=89.85	proposal_type=drift	counts=(0,0):134,(1,0):71,(1,1):97	assigned_counts=0:93,1:75	chrom=chr20	strand=+	mRNA_starts=31527484,31527484	mRNA_ends=31545035,31545035
sampled_psi	log_score
0.2883,0.7117	-1086.59
0.3402,0.6598	-1087.13
0.2707,0.7293	-1079.29
0.2491,0.7509	-1081.87
0.3093,0.6907	-1084.65
0.3227,0.6773	-1081.06
0.2511,0.7489	-1085.06
0.3378,0.6622	-1083.73
0.2715,0.7285	-1083.23
0.2197,0.7803	-1076.08
0.2977,0.7023	-1086.39
0.3344,0.6656	-1091.19
0.2569,0.7431	-1070.96
0.3214,0.6786	-1085.50
0.2545,0.7455	-1077.36
0.2760,0.7240	-1081.21
0.3281,0.6719	-1084.15
0.3374,0.6626	-1091.14
0.2815,0.7185	-1080.23
0.3662,0.6338	-1086.66
0.2517,0.7483	-1081.76
0.2773,0.7227	-1080.24
0.3050,0.6950	-1087.94
0.3440,0.6560	-1082.67
0.2484,0.7516	-1078.57
0.3483,0.6517	-1094.79
0.2397,0.7603	-1074.23
0.2787,0.7213	-1074.53
0.2949,0.7051	-1085.57
0.3419,0.6581	-1087.81
0.2251,0.7749	-1075.83
0.4191,0.5809	-1093.94
0.2468,0.7532	-1075.27
0.2468,0.7532	-1088.66
0.3109,0.6891	-1085.45
0.3356,0.6644	-1088.44
0.2566,0.7434	-1084.78
0.3740,0.6260	-1092.66
0.2727,0.7273	-1080.26
0.2417,0.7583	-1070.77
0.2903,0.7097	-1085.65
0.3377,0.6623	-1084.41
0.2248,0.7752	-1082.04
0.3157,0.6843	-1083.14
0.2839,0.7161	-1082.09
0.2647,0.7353	-1074.23
0.2726,0.7274	-1074.37
0.3269,0.6731	-1084.84
0.2377,0.7623	-1085.91
0.2647,0.7353	-1085.47
0.2874,0.7126	-1085.71
0.3172,0.6828	-1083.17
0.2433,0.7567	-1079.85
0.3329,0.6671	-1086.35
0.2462,0.7538	-1084.23
0.2977,0.7023	-1078.66
0.2782,0.7218	-1078.33
0.2799,0.7201	-1080.23
0.2848,0.7152	-1085.77
0.3074,0.6926	-1086.27
0.2292,0.7708	-1085.38
0.2920,0.7080	-1083.84
0.2582,0.7418	-1077.32
0.2765,0.7235	-1079.28
0.3428,0.6572	-1087.82
0.2527,0.7473	-1070.88
0.2219,0.7781	-1083.50
0.3024,0.6976	-1083.81
0.2617,0.7383	-1087.67
0.2955,0.7045	-1090.77
0.3491,0.6509	-1088.54
0.2718,0.7282	-1083.22
0.2489,0.7511	-1080.77
0.3129,0.6871	-1087.03
0.3125,0.6875	-1088.61
0.2544,0.7456	-1069.84
0.3350,0.6650	-1086.38
0.2496,0.7504	-1073.04
0.2510,0.7490	-1080.70
0.3892,0.6108	-1087.78
0.2800,0.7200	-1083.07
0.2794,0.7206	-1081.18
0.3198,0.6802	-1085.49
0.2519,0.7481	-1074.14
0.2136,0.7864	-1082.93
0.2961,0.7039	-1084.69
0.2589,0.7411	-1082.58
0.2878,0.7122	-1092.04
0.2992,0.7008	-1082.11
0.2794,0.7206	-1085.92
0.2271,0.7729	-1081.87
0.2742,0.7258	-1088.04
0.2946,0.7054	-1077.71
0.3074,0.6926	-1086.27
0.3044,0.6956	-1080.51
0.2531,0.7469	-1077.38
0.2355,0.7645	-1077.84
0.2885,0.7115	-1085.68
0.3286,0.6714	-1089.16
0.3263,0.6737	-1087.73
0.3235,0.6765	-1086.26
0.3152,0.6848	-1081.58
0.2625,0.7375	-1082.46
0.2849,0.7151	-1087.61
0.2841,0.7159	-1083.01
0.3571,0.6429	-1092.77
0.2849,0.7151	-1085.76
0.3266,0.6734	-1083.39
0.2410,0.7590	-1079.95
0.2627,0.7373	-1081.42
0.2551,0.7449	-1081.64
0.3911,0.6089	-1092.31
0.2742,0.7258	-1077.33
0.3362,0.6638	-1089.80
0.2193,0.7807	-1082.44
0.2789,0.7211	-1084.98
0.2615,0.7385	-1085.61
0.3711,0.6289	-1088.98
0.2647,0.7353	-1080.36
0.3342,0.6658	-1085.68
0.2413,0.7587	-1078.79
0.2846,0.7154	-1083.01
0.2922,0.7078	-1082.96
0.3466,0.6534	-1087.87
0.2883,0.7117	-1084.78
0.2269,0.7731	-1075.76
0.2353,0.7647	-1079.02
0.2753,0.7247	-1085.08
0.2565,0.7435	-1084.79
0.3064,0.6936	-1082.19
0.3266,0.6734	-1081.22
0.2562,0.7438	-1084.80
0.2598,0.7402	-1084.64
0.3312,0.6688	-1082.82
0.2724,0.7276	-1086.16
0.3249,0.6751	-1081.88
0.3079,0.6921	-1091.94
0.2711,0.7289	-1077.31
0.2863,0.7137	-1090.30
0.3169,0.6831	-1091.61
0.2952,0.7048	-1085.56
0.3328,0.6672	-1087.74
0.3201,0.6799	-1086.24
0.3020,0.6980	-1078.79
0.3534,0.6466	-1089.20
0.3827,0.6173	-1090.77
0.3032,0.6968	-1083.82
0.3716,0.6284	-1095.30
0.3220,0.6780	-1087.00
0.3272,0.6728	-1088.45
0.3376,0.6624	-1085.07
0.4366,0.5634	-1095.12
0.2913,0.7087	-1085.63
0.3887,0.6113	-1091.82
0.2965,0.7035	-1085.55
0.3225,0.6775	-1084.77
0.3358,0.6642	-1091.85
0.4317,0.5683	-1094.22
0.2433,0.7567	-1074.18
0.4152,0.5848	-1094.89
0.3038,0.6962	-1083.82
0.3224,0.6776	-1086.25
0.3224,0.6776	-1084.02
0.4215,0.5785	-1091.13
0.2407,0.7593	-1075.36
0.4127,0.5873	-1091.36
0.2847,0.7153	-1080.24
0.3383,0.6617	-1091.80
0.3255,0.6745	-1084.82
0.3698,0.6302	-1090.54
0.2727,0.7273	-1085.17
0.4426,0.5574	-1092.69
0.2952,0.7048	-1091.65
0.3283,0.6717	-1089.88
0.3365,0.6635	-1087.76
0.3517,0.6483	-1087.35
0.2452,0.7548	-1083.16
0.3829,0.6171	-1091.25
0.2955,0.7045	-1088.17
0.3278,0.6722	-1087.73
0.3570,0.6430	-1085.13
0.3255,0.6745	-1084.82
0.2220,0.7780	-1078.47
0.4003,0.5997	-1090.85
0.2635,0.7365	-1089.63
0.3215,0.6785	-1083.26
0.3416,0.6584	-1093.06
0.2858,0.7142	-1083.00
0.2433,0.7567	-1078.72
0.3955,0.6045	-1093.23
0.2730,0.7270	-1086.13
0.3492,0.6508	-1090.41
0.3652,0.6348	-1089.38
0.2750,0.7250	-1077.34
0.2986,0.7014	-1079.54
0.3556,0.6444	-1092.79
0.2642,0.7358	-1088.56
0.3664,0.6336	-1091.59
0.3320,0.6680	-1091.93
0.2691,0.7309	-1079.30
0.3356,0.6644	-1087.76
0.3586,0.6414	-1088.10
0.2769,0.7231	-1085.04
0.4182,0.5818	-1090.29
0.3455,0.6545	-1084.67
0.3007,0.6993	-1083.81
0.3137,0.6863	-1085.46
0.3645,0.6355	-1088.25
0.2924,0.7076	-1087.37
0.3817,0.6183	-1086.41
0.3261,0.6739	-1084.10
0.2866,0.7134	-1084.81
0.3248,0.6752	-1083.34
0.3912,0.6088	-1091.87
0.2904,0.7096	-1082.96
0.3462,0.6538	-1087.23
0.3659,0.6341	-1084.99
0.2934,0.7066	-1083.83
0.2721,0.7279	-1089.12
0.3429,0.6571	-1090.43
0.2300,0.7700	-1082.90
0.3719,0.6281	-1091.09
0.3423,0.6577	-1084.55
0.2970,0.7030	-1078.65
0.2749,0.7251	-1076.37
0.3244,0.6756	-1084.06
0.2015,0.7985	-1084.15
0.3858,0.6142	-1092.24
0.3313,0.6687	-1094.76
0.2869,0.7131	-1077.52
0.2451,0.7549	-1079.79
0.3148,0.6852	-1086.24
0.2360,0.7640	-1077.82
0.3660,0.6340	-1094.89
0.3027,0.6973	-1077.97
0.3335,0.6665	-1089.82
0.2250,0.7750	-1070.89
0.2874,0.7126	-1094.79
0.2530,0.7470	-1073.05
0.2963,0.7037	-1085.55
0.2716,0.7284	-1084.22
0.3619,0.6381	-1085.35
0.2720,0.7280	-1083.22
0.2524,0.7476	-1075.22
0.3023,0.6977	-1085.49
0.2853,0.7147	-1090.35
0.2640,0.7360	-1077.29
0.4041,0.5959	-1091.00
0.2351,0.7649	-1084.92
0.2574,0.7426	-1084.75
0.2853,0.7147	-1084.84
0.2577,0.7423	-1081.56
0.2596,0.7404	-1072.07
0.4321,0.5679	-1093.41
0.2403,0.7597	-1082.27
0.2656,0.7344	-1087.46
0.2908,0.7092	-1087.42
0.2992,0.7008	-1090.62
0.2911,0.7089	-1086.52
0.3653,0.6347	-1087.17
0.2236,0.7764	-1072.16
0.2466,0.7534	-1079.74
0.2689,0.7311	-1081.30
0.3226,0.6774	-1090.71
0.2267,0.7733	-1067.18
0.3318,0.6682	-1093.34
0.2223,0.7777	-1073.45
0.2477,0.7523	-1083.03
0.2992,0.7008	-1082.11
0.3287,0.6713	-1089.87
0.2817,0.7183	-1080.23
0.3100,0.6900	-1079.85
0.2567,0.7433	-1074.15
0.2245,0.7755	-1084.53
0.3520,0.6480	-1088.58
0.3390,0.6610	-1086.45
0.2942,0.7058	-1085.58
0.3300,0.6700	-1087.73
0.3141,0.6859	-1080.77
0.2261,0.7739	-1078.25
0.4032,0.5968	-1094.10
0.3577,0.6423	-1089.84
0.2437,0.7563	-1080.97
0.3071,0.6929	-1086.27
0.2438,0.7562	-1082.10
0.2557,0.7443	-1082.69
0.3994,0.6006	-1088.78
0.3444,0.6556	-1083.98
0.2768,0.7232	-1080.24
0.3249,0.6751	-1083.34
0.2690,0.7310	-1082.30
0.2752,0.7248	-1079.28
0.3655,0.6345	-1086.63
0.3104,0.6896	-1094.23
0.2788,0.7212	-1084.04
0.2948,0.7052	-1086.44
0.2888,0.7112	-1080.27
0.2786,0.7214	-1083.09
0.3572,0.6428	-1091.60
0.3127,0.6873	-1081.52
0.2702,0.7298	-1080.28
0.2883,0.7117	-1082.07
0.2971,0.7029	-1089.84
0.3376,0.6624	-1088.44
0.3391,0.6609	-1081.11
0.2801,0.7199	-1087.78
0.2823,0.7177	-1079.30
0.2716,0.7284	-1078.30
0.2774,0.7226	-1084.07
0.3435,0.6565	-1088.48
0.3269,0.6731	-1088.45
0.2388,0.7612	-1077.72
0.2715,0.7285	-1094.09
0.2677,0.7323	-1080.31
0.3474,0.6526	-1092.93
0.3044,0.6956	-1083.82
0.3253,0.6747	-1087.00
0.2999,0.7001	-1084.66
0.2967,0.7033	-1082.09
0.3071,0.6929	-1085.46
0.3312,0.6688	-1087.03
0.2879,0.7121	-1080.26
0.3213,0.6787	-1083.26
0.3142,0.6858	-1091.70
0.3075,0.6925	-1082.21
0.3626,0.6374	-1087.64
0.2898,0.7102	-1080.28
0.2983,0.7017	-1080.39
0.3904,0.6096	-1093.19
0.3048,0.6952	-1077.22
0.2973,0.7027	-1082.96
0.3282,0.6718	-1089.88
0.3148,0.6852	-1089.35
0.3177,0.6823	-1083.18
0.3653,0.6347	-1089.38
0.3156,0.6844	-1088.56
0.2953,0.7047	-1080.34
0.2993,0.7007	-1085.51
0.3438,0.6562	-1083.31
0.3165,0.6835	-1090.86
0.3532,0.6468	-1083.76
0.2988,0.7012	-1086.37
0.3104,0.6896	-1087.85
0.2716,0.7284	-1086.19
0.3195,0.6805	-1084.73
0.2599,0.7401	-1086.73
0.3368,0.6632	-1090.47
0.2753,0.7247	-1085.08
0.2872,0.7128	-1080.26
0.2765,0.7235	-1078.32
0.3251,0.6749	-1084.08
0.2620,0.7380	-1082.48
0.3768,0.6232	-1090.15
0.3061,0.6939	-1082.19
0.2917,0.7083	-1074.97
0.2874,0.7126	-1083.89
0.3464,0.6536	-1092.95
0.2692,0.7308	-1080.30
0.3525,0.6475	-1084.33
0.2562,0.7438	-1079.47
0.2950,0.7050	-1087.31
0.2971,0.7029	-1086.40
0.3244,0.6756	-1087.73
0.3097,0.6903	-1083.85
0.3228,0.6772	-1084.03
0.2396,0.7604	-1089.24
0.2453,0.7547	-1082.03
0.3257,0.6743	-1084.09
0.3304,0.6696	-1087.73
0.3316,0.6684	-1087.03
0.3603,0.6397	-1087.57
0.2579,0.7421	-1079.44
0.3092,0.6908	-1085.45
0.3488,0.6512	-1091.03
0.3009,0.6991	-1081.28
0.2724,0.7276	-1083.21
0.3310,0.6690	-1083.51
0.2703,0.7297	-1082.27
0.3536,0.6464	-1089.81
0.3453,0.6547	-1089.14
0.2920,0.7080	-1082.07
0.2497,0.7503	-1077.44
0.3596,0.6404	-1092.17
0.3034,0.6966	-1081.32
0.3574,0.6426	-1095.12
0.3751,0.6249	-1089.09
0.2424,0.7576	-1076.47
0.2347,0.7653	-1080.23
0.3370,0.6630	-1085.74
0.2984,0.7016	-1082.10
0.2874,0.7126	-1078.44
0.3160,0.6840	-1082.38
0.2435,0.7565	-1078.71
0.2919,0.7081	-1090.93
0.3426,0.6574	-1085.87
0.2893,0.7107	-1079.38
0.3007,0.6993	-1090.56
0.2853,0.7147	-1072.90
0.1847,0.8153	-1065.55
0.3028,0.6972	-1090.49
0.3015,0.6985	-1082.97
0.3192,0.6808	-1076.39
0.3601,0.6399	-1086.99
0.3022,0.6978	-1091.34
0.1684,0.8316	-1069.97
0.3512,0.6488	-1088.57
0.3488,0.6512	-1086.66
0.3128,0.6872	-1088.60
0.3690,0.6310	-1085.17
0.2823,0.7177	-1082.10
0.1909,0.8091	-1071.02
0.3423,0.6577	-1087.17
0.3483,0.6517	-1089.78
0.3882,0.6118	-1090.90
0.3140,0.6860	-1085.46
0.3495,0.6505	-1086.68
0.2119,0.7881	-1071.26
0.3497,0.6503	-1086.06
0.3296,0.6704	-1087.02
0.3435,0.6565	-1091.07
0.3285,0.6715	-1084.15
0.3178,0.6822	-1086.24
0.2413,0.7587	-1077.64
0.3352,0.6648	-1087.75
0.2737,0.7263	-1087.08
0.3228,0.6772	-1081.81
0.2800,0.7200	-1081.18
0.3667,0.6333	-1086.13
0.2341,0.7659	-1071.96
0.2706,0.7294	-1081.27
0.2909,0.7091	-1081.18
0.3391,0.6609	-1088.45
0.2798,0.7202	-1072.67
0.3737,0.6263	-1090.60
0.2244,0.7756	-1078.34
0.2199,0.7801	-1079.87
0.2679,0.7321	-1084.33
0.3275,0.6725	-1081.25
0.2946,0.7054	-1085.57
0.3604,0.6396	-1093.88
0.2025,0.7975	-1078.55
0.2134,0.7866	-1085.56
0.2675,0.7325	-1084.35
0.2763,0.7237	-1075.43
0.3064,0.6936	-1092.00
0.3461,0.6539	-1085.96
0.2182,0.7818	-1076.15
0.2192,0.7808	-1078.64
0.2477,0.7523	-1079.70
0.2579,0.7421	-1076.27
0.2749,0.7251	-1087.04
0.3310,0.6690	-1084.22
0.2091,0.7909	-1075.37
0.2418,0.7582	-1077.63
0.2436,0.7564	-1080.98
0.2152,0.7848	-1075.02
0.2960,0.7040	-1084.69
0.2833,0.7167	-1076.53
0.2289,0.7711	-1080.54
0.2532,0.7468	-1071.97
0.2604,0.7396	-1085.66
0.1996,0.8004	-1080.19
0.2769,0.7231	-1084.08
0.2704,0.7296	-1080.28
0.2403,0.7597	-1071.92
0.2515,0.7485	-1081.77
0.2422,0.7578	-1082.18
0.2231,0.7769	-1087.14
0.2673,0.7327	-1074.27
0.2551,0.7449	-1081.64
0.2609,0.7391	-1084.60
0.2556,0.7444	-1072.01
0.2332,0.7668	-1074.35
0.2380,0.7620	-1073.09
0.2545,0.7455	-1078.44
0.2438,0.7562	-1076.44
0.2502,0.7498	-1078.53
0.2555,0.7445	-1080.56
0.2161,0.7839	-1082.71
0.2156,0.7844	-1073.71
0.2939,0.7061	-1078.57
0.2623,0.7377	-1079.37
0.2663,0.7337	-1084.39
0.3043,0.6957	-1085.47
0.2520,0.7480	-1082.84
0.2379,0.7621	-1082.41
0.3011,0.6989	-1081.28
0.2530,0.7470	-1080.63
0.2962,0.7038	-1089.88
0.3219,0.6781	-1085.51
0.2382,0.7618	-1076.58
0.2391,0.7609	-1082.34
0.2985,0.7015	-1079.54
0.2519,0.7481	-1079.58
0.2925,0.7075	-1083.84
0.3235,0.6765	-1092.90
0.2298,0.7702	-1079.28
0.2480,0.7520	-1075.25
0.3249,0.6751	-1082.61
0.2722,0.7278	-1086.16
0.2500,0.7500	-1074.14
0.2970,0.7030	-1078.65
0.2674,0.7326	-1085.36
0.2686,0.7314	-1075.29
0.3148,0.6852	-1082.35
0.3029,0.6971	-1081.31
0.2702,0.7298	-1080.28
0.2997,0.7003	-1082.96
0.2869,0.7131	-1080.25
0.2781,0.7219	-1079.28
0.2679,0.7321	-1082.32
0.3183,0.6817	-1088.52
0.2677,0.7323	-1087.36
0.2999,0.7001	-1089.75
0.2451,0.7549	-1080.91
0.2593,0.7407	-1082.56
0.2722,0.7278	-1083.22
0.3154,0.6846	-1089.34
0.2743,0.7257	-1080.25
0.3421,0.6579	-1089.78
0.2513,0.7487	-1078.50
0.2497,0.7503	-1075.24
0.2590,0.7410	-1073.11
0.3144,0.6856	-1082.34
0.2764,0.7236	-1082.16
0.3192,0.6808	-1088.51
0.2649,0.7351	-1087.50
0.2501,0.7499	-1076.33
0.2562,0.7438	-1081.61
0.3167,0.6833	-1083.93
0.2738,0.7262	-1083.18
0.3302,0.6698	-1085.61
0.2429,0.7571	-1083.28
0.2527,0.7473	-1080.64
0.3097,0.6903	-1079.84
0.3214,0.6786	-1086.25
0.2634,0.7366	-1084.49
0.3519,0.6481	-1087.96
0.2383,0.7617	-1071.93
0.3027,0.6973	-1085.48
0.3098,0.6902	-1081.45
0.3117,0.6883	-1084.66
0.2800,0.7200	-1086.84
0.3663,0.6337	-1086.66
0.2122,0.7878	-1076.50
0.3676,0.6324	-1089.43
0.3214,0.6786	-1089.99
0.3323,0.6677	-1085.64
0.3190,0.6810	-1090.79
0.3715,0.6285	-1093.19
0.2221,0.7779	-1082.22
0.3446,0.6554	-1090.42
0.2875,0.7125	-1073.90
0.3231,0.6769	-1087.00
0.3560,0.6440	-1092.79
0.3777,0.6223	-1091.17
0.2481,0.7519	-1069.71
0.3368,0.6632	-1089.12
0.3024,0.6976	-1077.13
0.3251,0.6749	-1081.16
0.3415,0.6585	-1087.81
0.3798,0.6202	-1090.22
0.2638,0.7362	-1077.29
0.3395,0.6605	-1085.79
0.3121,0.6879	-1084.66
0.3553,0.6447	-1093.39
0.3780,0.6220	-1087.69
0.3432,0.6568	-1085.88
0.3195,0.6805	-1082.46
0.2879,0.7121	-1082.98
0.3280,0.6720	-1088.45
0.3366,0.6634	-1086.41
0.4140,0.5860	-1095.58
0.2927,0.7073	-1089.13
0.3211,0.6789	-1085.50
0.3200,0.6800	-1089.26
0.3785,0.6215	-1089.69
0.2863,0.7137	-1080.25
0.3522,0.6478	-1087.36
0.3067,0.6933	-1079.75
0.3438,0.6562	-1089.13
0.3671,0.6329	-1088.87
0.3972,0.6028	-1091.99
0.2926,0.7074	-1084.72
0.3164,0.6836	-1088.55
0.3108,0.6892	-1080.68
0.3512,0.6488	-1085.50
0.3633,0.6367	-1089.34
0.3688,0.6312	-1092.68
0.2657,0.7343	-1082.37
0.3139,0.6861	-1087.02
0.2884,0.7116	-1084.78
0.3144,0.6856	-1083.12
0.3345,0.6655	-1089.81
0.3126,0.6874	-1086.24
0.3244,0.6756	-1087.00
0.3719,0.6281	-1092.67
0.2829,0.7171	-1082.10
0.3094,0.6906	-1083.85
0.3177,0.6823	-1082.42
0.3087,0.6913	-1082.23
0.2800,0.7200	-1081.18
0.3372,0.6628	-1088.44
0.2607,0.7393	-1084.60
0.3071,0.6929	-1087.09
0.3081,0.6919	-1083.03
0.3159,0.6841	-1090.10
0.2807,0.7193	-1086.82
0.3293,0.6707	-1084.17
0.3184,0.6816	-1081.67
0.3094,0.6906	-1087.06
0.3092,0.6908	-1084.65
0.2894,0.7106	-1078.48
0.2762,0.7238	-1086.98
0.3445,0.6555	-1087.20
0.2848,0.7152	-1087.61
0.3477,0.6523	-1091.67
0.3306,0.6694	-1088.44
0.3348,0.6652	-1087.06
0.2768,0.7232	-1091.76
0.3289,0.6711	-1089.16
0.2834,0.7166	-1076.53
0.3463,0.6537	-1080.24
0.3149,0.6851	-1087.79
0.3358,0.6642	-1091.85
0.3013,0.6987	-1084.65
0.3174,0.6826	-1087.77
0.2726,0.7274	-1083.21
0.3368,0.6632	-1080.31
0.3097,0.6903	-1083.05
0.3247,0.6753	-1086.27
0.3128,0.6872	-1079.16
0.3487,0.6513	-1082.28
0.2801,0.7199	-1076.46
0.2996,0.7004	-1082.96
0.2547,0.7453	-1078.43
0.3354,0.6646	-1084.34
0.2948,0.7052	-1084.70
0.2916,0.7084	-1079.41
0.2778,0.7222	-1081.19
0.3040,0.6960	-1082.99
0.2530,0.7470	-1081.71
0.3276,0.6724	-1083.41
0.3059,0.6941	-1083.01
0.3138,0.6862	-1090.93
0.3260,0.6740	-1084.82
0.2754,0.7246	-1079.28
0.2531,0.7469	-1074.14
0.3329,0.6671	-1085.66
0.2770,0.7230	-1077.36
0.2924,0.7076	-1075.00
0.3421,0.6579	-1085.85
0.2508,0.7492	-1087.27
0.2741,0.7259	-1078.30
0.3632,0.6368	-1084.85
0.2440,0.7560	-1091.14
0.2720,0.7280	-1084.20
0.3354,0.6646	-1089.81
0.2618,0.7382	-1084.56
0.2787,0.7213	-1081.18
0.3845,0.6155	-1087.52
0.3036,0.6964	-1080.50
0.2660,0.7340	-1081.35
0.2926,0.7074	-1080.31
0.2519,0.7481	-1078.49
0.2627,0.7373	-1081.43
0.3565,0.6435	-1088.65
0.2990,0.7010	-1090.63
0.2851,0.7149	-1078.41
0.2850,0.7150	-1084.84
0.2542,0.7458	-1077.37
0.2576,0.7424	-1079.45
0.2829,0.7171	-1078.38
0.2991,0.7009	-1073.59
0.2880,0.7120	-1081.17
0.2999,0.7001	-1077.03
0.3192,0.6808	-1083.97
0.2928,0.7072	-1077.66
0.2590,0.7410	-1079.42
0.3078,0.6922	-1081.41
0.2750,0.7250	-1078.31
0.3166,0.6834	-1086.24
0.3299,0.6701	-1084.19
0.2934,0.7066	-1079.44
0.3044,0.6956	-1084.65
0.2846,0.7154	-1084.85
0.2617,0.7383	-1085.60
0.3145,0.6855	-1090.91
0.3012,0.6988	-1093.07
0.3105,0.6895	-1087.85
0.3183,0.6817	-1091.57
0.2634,0.7366	-1081.41
0.2844,0.7156	-1079.32
0.3312,0.6688	-1084.92
0.2730,0.7270	-1082.22
0.3873,0.6127	-1090.88
0.2954,0.7046	-1083.82
0.2605,0.7395	-1078.35
0.2689,0.7311	-1082.30
0.3349,0.6651	-1087.07
0.2811,0.7189	-1084.93
0.3817,0.6183	-1089.30
0.3262,0.6738	-1089.18
0.2342,0.7658	-1081.44
0.2840,0.7160	-1080.24
0.2813,0.7187	-1087.74
0.2712,0.7288	-1082.25
0.3326,0.6674	-1084.26
0.3320,0.6680	-1085.64
0.2057,0.7943	-1079.63
0.2620,0.7380	-1083.51
0.3195,0.6805	-1087.75
0.2741,0.7259	-1087.07
0.4026,0.5974	-1090.94
0.3498,0.6502	-1084.21
0.2406,0.7594	-1075.36
0.2862,0.7138	-1085.73
0.3149,0.6851	-1087.79
0.2513,0.7487	-1083.96
0.3886,0.6114	-1090.46
0.3118,0.6882	-1078.33
0.2198,0.7802	-1086.21
0.2884,0.7116	-1090.20
0.3270,0.6730	-1084.84
0.2616,0.7384	-1084.56
0.3874,0.6126	-1090.42
0.3038,0.6962	-1086.30
0.2069,0.7931	-1079.54
0.3075,0.6925	-1084.65
0.2764,0.7236	-1078.31
0.2428,0.7572	-1086.70
0.4058,0.5942	-1091.83
0.2830,0.7170	-1080.24
0.2186,0.7814	-1077.40
0.3184,0.6816	-1085.48
0.2962,0.7038	-1081.22
0.2374,0.7626	-1076.60
0.4001,0.5999	-1086.39
0.3141,0.6859	-1081.55
0.2459,0.7541	-1082.00
0.3444,0.6556	-1086.56
0.2869,0.7131	-1079.34
0.2120,0.7880	-1069.94
0.3711,0.6289	-1088.98
0.2737,0.7263	-1090.02
0.2782,0.7218	-1080.23
0.4053,0.5947	-1094.88
0.2856,0.7144	-1079.33
0.2455,0.7545	-1086.51
0.3420,0.6580	-1089.78
0.3296,0.6704	-1088.44
0.2666,0.7334	-1075.27
0.3877,0.6123	-1089.52
0.3135,0.6865	-1083.10
0.2558,0.7442	-1076.28
0.3648,0.6352	-1086.05
0.2863,0.7137	-1078.42
0.3115,0.6885	-1082.28
0.3469,0.6531	-1091.04
0.3204,0.6796	-1088.50
0.2312,0.7688	-1082.82
0.3039,0.6961	-1082.99
0.2911,0.7089	-1085.63
0.3408,0.6592	-1087.80
0.3208,0.6792	-1085.50
0.3336,0.6664	-1091.20
0.2518,0.7482	-1078.49
0.2565,0.7435	-1081.60
0.3212,0.6788	-1084.00
0.3890,0.6110	-1093.63
0.2901,0.7099	-1082.97
0.2752,0.7248	-1084.12
0.2312,0.7688	-1075.60
0.2525,0.7475	-1084.99
0.3105,0.6895	-1091.04
0.3903,0.6097	-1090.07
0.2639,0.7361	-1072.16
0.2892,0.7108	-1085.67
0.2237,0.7763	-1069.67
0.2929,0.7071	-1083.84
0.2965,0.7035	-1078.63
0.3277,0.6723	-1081.98
0.2746,0.7254	-1084.13
0.3290,0.6710	-1088.44
0.2734,0.7266	-1084.16
0.2821,0.7179	-1084.90
0.3252,0.6748	-1081.16
0.3292,0.6708	-1085.59
0.3193,0.6807	-1087.75
0.2873,0.7127	-1080.26
0.2545,0.7455	-1083.81
0.2917,0.7083	-1089.17
0.3445,0.6555	-1087.85
0.3343,0.6657	-1085.68
0.3562,0.6438	-1088.05
0.2782,0.7218	-1076.42
0.2837,0.7163	-1080.24
0.3403,0.6597	-1096.40
0.4028,0.5972	-1090.16
0.3174,0.6826	-1087.00
0.3637,0.6363	-1088.79
0.3356,0.6644	-1087.76
0.2701,0.7299	-1082.27
0.3293,0.6707	-1084.17
0.4060,0.5940	-1089.55
0.3234,0.6766	-1083.31
0.3605,0.6395	-1082.99
0.3251,0.6749	-1079.69
0.2997,0.7003	-1084.66
0.2873,0.7127	-1079.35
0.3784,0.6216	-1093.66
0.2949,0.7051	-1088.18
0.3318,0.6682	-1089.84
0.3344,0.6656	-1087.06
0.2981,0.7019	-1084.67
0.3296,0.6704	-1084.18
0.3146,0.6854	-1080.79
0.3107,0.6893	-1082.27
0.3464,0.6536	-1089.78
0.3280,0.6720	-1083.43
0.3196,0.6804	-1085.49
0.3500,0.6500	-1087.31
0.3300,0.6700	-1091.98
0.3085,0.6915	-1083.84
0.3238,0.6762	-1087.00
0.3092,0.6908	-1084.65
0.2762,0.7238	-1093.73
0.3389,0.6611	-1087.78
0.3697,0.6303	-1086.80
0.3060,0.6940	-1080.55
0.2544,0.7456	-1088.12
0.3047,0.6953	-1084.65
0.2940,0.7060	-1086.46
0.3431,0.6569	-1085.88
0.4053,0.5947	-1091.43
0.2559,0.7441	-1084.82
0.2532,0.7468	-1090.36
0.3432,0.6568	-1083.28
0.2892,0.7108	-1080.27
0.4030,0.5970	-1090.17
0.3771,0.6229	-1093.67
0.2740,0.7260	-1086.10
0.2559,0.7441	-1076.28
0.3152,0.6848	-1078.48
0.2865,0.7135	-1082.99
0.3783,0.6217	-1086.21
0.3885,0.6115	-1087.28
0.2686,0.7314	-1090.32
0.2607,0.7393	-1080.43
0.3046,0.6954	-1079.69
0.2566,0.7434	-1076.28
0.4076,0.5924	-1090.02
0.3155,0.6845	-1085.46
0.2942,0.7058	-1083.83
0.2911,0.7089	-1086.52
0.2854,0.7146	-1091.26
0.2721,0.7279	-1088.14
0.3678,0.6322	-1085.64
0.2940,0.7060	-1083.83
0.3108,0.6892	-1080.68
0.3365,0.6635	-1085.05
0.2387,0.7613	-1081.20
0.2516,0.7484	-1071.96
0.3764,0.6236	-1089.64
0.3029,0.6971	-1094.65
0.3082,0.6918	-1083.03
0.3083,0.6917	-1077.37
0.2475,0.7525	-1084.15
0.3131,0.6869	-1082.31
0.4296,0.5704	-1091.33
0.2897,0.7103	-1083.87
0.3602,0.6398	-1091.02
0.3413,0.6587	-1084.52
0.2363,0.7637	-1086.02
0.2922,0.7078	-1078.53
0.4413,0.5587	-1095.43
0.2730,0.7270	-1083.20
0.3741,0.6259	-1091.12
0.3261,0.6739	-1087.73
0.2512,0.7488	-1085.06
0.3417,0.6583	-1088.47
0.4349,0.5651	-1093.52
0.2835,0.7165	-1089.51
0.3596,0.6404	-1093.32
0.3389,0.6611	-1084.44
0.2558,0.7442	-1084.82
0.3140,0.6860	-1084.68
0.4311,0.5689	-1095.59
0.2829,0.7171	-1082.10
0.3703,0.6297	-1086.83
0.3747,0.6253	-1090.10
0.3320,0.6680	-1087.74
0.3013,0.6987	-1086.34
0.4107,0.5893	-1091.63
0.2762,0.7238	-1084.09
0.3216,0.6784	-1089.98
0.3795,0.6205	-1088.25
0.3419,0.6581	-1087.81
0.2973,0.7027	-1082.96
0.4152,0.5848	-1095.92
0.2922,0.7078	-1084.73
0.3066,0.6934	-1078.93
0.3910,0.6090	-1090.53
0.3297,0.6703	-1086.31
0.3407,0.6593	-1087.14
0.3684,0.6316	-1088.91
0.3043,0.6957	-1084.65
0.2939,0.7061	-1085.58
0.3634,0.6366	-1087.10
0.2978,0.7022	-1082.10
0.3592,0.6408	-1091.01
0.4000,0.6000	-1092.87
0.2867,0.7133	-1082.08
0.3285,0.6715	-1085.58
0.3307,0.6693	-1089.14
0.2564,0.7436	-1077.34
0.3485,0.6515	-1086.03
0.3751,0.6249	-1089.60
0.3242,0.6758	-1083.33
0.3234,0.6766	-1087.00
0.2972,0.7028	-1081.23
0.2570,0.7430	-1082.64
0.3124,0.6876	-1086.24
0.3526,0.6474	-1086.76
0.3021,0.6979	-1093.03
0.3002,0.6998	-1086.35
0.2915,0.7085	-1078.52
0.2670,0.7330	-1080.32
0.3328,0.6672	-1089.83
0.3498,0.6502	-1091.65
0.2903,0.7097	-1080.28
0.2286,0.7714	-1076.91
0.2943,0.7057	-1079.46
0.2797,0.7203	-1076.45
0.3054,0.6946	-1084.64
0.3461,0.6539	-1085.32
0.2652,0.7348	-1073.22
0.2359,0.7641	-1076.64
0.2806,0.7194	-1080.23
0.2679,0.7321	-1084.33
0.2936,0.7064	-1088.22
0.3119,0.6881	-1088.62
0.2216,0.7784	-1079.75
0.2574,0.7426	-1079.45
0.2453,0.7547	-1083.15
0.2546,0.7454	-1071.99
0.3326,0.6674	-1084.26
0.3042,0.6958	-1083.82
0.2431,0.7569	-1071.91
0.2710,0.7290	-1076.32
0.2440,0.7560	-1084.35
0.2841,0.7159	-1082.09
0.3012,0.6988	-1084.65
0.3017,0.6983	-1082.97
0.2701,0.7299	-1080.28
0.2371,0.7629	-1082.45
0.2373,0.7627	-1074.27
0.2810,0.7190	-1077.41
0.3324,0.6676	-1084.95
0.3020,0.6980	-1088.84
0.3325,0.6675	-1084.95
0.2518,0.7482	-1085.03
0.2247,0.7753	-1089.47
0.2832,0.7168	-1083.95
0.2836,0.7164	-1085.80
0.3097,0.6903	-1089.46
0.3473,0.6527	-1084.73
0.2379,0.7621	-1087.07
0.2073,0.7927	-1072.79
0.3030,0.6970	-1080.48
0.2792,0.7208	-1085.92
0.3093,0.6907	-1088.67
0.3392,0.6608	-1089.12
0.2489,0.7511	-1069.72
0.2483,0.7517	-1071.93
0.2796,0.7204	-1080.23
0.3270,0.6730	-1094.22
0.3190,0.6810	-1084.72
0.3549,0.6451	-1091.01
0.2673,0.7327	-1085.36
0.2414,0.7586	-1077.64
0.2373,0.7627	-1074.27
0.3249,0.6751	-1084.81
0.2982,0.7018	-1078.68
0.3746,0.6254	-1088.57
0.2392,0.7608	-1075.39
0.2461,0.7539	-1084.23
0.2324,0.7676	-1086.32
0.3479,0.6521	-1086.01
0.3054,0.6946	-1083.00
0.3599,0.6401	-1089.29
0.2895,0.7105	-1080.28
0.3066,0.6934	-1089.54
0.2682,0.7318	-1084.32
0.3051,0.6949	-1088.76
0.2665,0.7335	-1078.31
0.3226,0.6774	-1082.55
0.3087,0.6913	-1087.07
0.3280,0.6720	-1082.71
0.2663,0.7337	-1071.21
0.2808,0.7192	-1078.35
0.2983,0.7017	-1084.67
0.3124,0.6876	-1085.45
0.3635,0.6365	-1091.59
0.3297,0.6703	-1080.64
0.2725,0.7275	-1076.33
0.3083,0.6917	-1085.46
0.2384,0.7616	-1078.90
0.3166,0.6834	-1084.70
0.3550,0.6450	-1089.82
0.3307,0.6693	-1091.96
0.2841,0.7159	-1081.16
0.3173,0.6827	-1084.70
0.2736,0.7264	-1072.44
0.3558,0.6442	-1083.88
0.3775,0.6225	-1092.17
0.3457,0.6543	-1084.03
0.3192,0.6808	-1081.70
0.3134,0.6866	-1085.46
0.3025,0.6975	-1084.65
0.3561,0.6439	-1089.23
0.3528,0.6472	-1088.59
0.3180,0.6820	-1089.29
0.3329,0.6671	-1091.91
0.3458,0.6542	-1084.04
0.3044,0.6956	-1075.56
0.3341,0.6659	-1084.99
0.3703,0.6297	-1087.36
0.3188,0.6812	-1085.48
0.3105,0.6895	-1078.27
0.3463,0.6537	-1087.87
0.2795,0.7205	-1085.91
0.3096,0.6904	-1086.26
0.3733,0.6267	-1091.11
0.2796,0.7204	-1079.29
0.2948,0.7052	-1093.42
0.2786,0.7214	-1088.80
0.2509,0.7491	-1093.82
0.2949,0.7051	-1083.83
0.3711,0.6289	-1083.70
0.3101,0.6899	-1089.45
0.2388,0.7612	-1075.40
0.2603,0.7397	-1081.49
0.2518,0.7482	-1085.02
0.2766,0.7234	-1081.20
0.3393,0.6607	-1087.12
0.2821,0.7179	-1080.23
0.2567,0.7433	-1074.15
0.2601,0.7399	-1083.58
0.2488,0.7512	-1085.19
0.3091,0.6909	-1086.26
0.3067,0.6933	-1083.01
0.2415,0.7585	-1083.36
0.2590,0.7410	-1072.06
0.3136,0.6864	-1083.11
0.2610,0.7390	-1079.39
0.3294,0.6706	-1094.84
0.3169,0.6831	-1093.15
0.2617,0.7383	-1077.30
0.2761,0.7239	-1082.17
0.3454,0.6546	-1091.05
0.2818,0.7182	-1084.91
0.3025,0.6975	-1084.65
0.3162,0.6838	-1088.55
0.2169,0.7831	-1078.79
0.2572,0.7428	-1086.88
0.3727,0.6273	-1096.83
0.2650,0.7350	-1080.35
0.3269,0.6731	-1083.40
0.3105,0.6895	-1081.46
0.2384,0.7616	-1081.22
0.2780,0.7220	-1083.10
0.3648,0.6352	-1087.15
0.2604,0.7396	-1079.40
0.3452,0.6548	-1085.93
0.3199,0.6801	-1077.19
0.2484,0.7516	-1077.47
0.2748,0.7252	-1082.19
0.3640,0.6360	-1084.33
0.2749,0.7251	-1080.25
0.3282,0.6718	-1079.13
0.3409,0.6591	-1089.12
0.2526,0.7474	-1075.22
0.2488,0.7512	-1084.09
0.3810,0.6190	-1089.77
0.2750,0.7250	-1091.88
0.2913,0.7087	-1082.07
0.3588,0.6412	-1086.95
0.2361,0.7639	-1069.59
0.2749,0.7251	-1080.25
0.4032,0.5968	-1091.35
0.3154,0.6846	-1087.79
0.3395,0.6605	-1090.45
0.3458,0.6542	-1091.05
0.2502,0.7498	-1085.11
0.3019,0.6981	-1086.33
0.3602,0.6398	-1091.02
0.3453,0.6547	-1089.78
0.3468,0.6532	-1088.51
0.3601,0.6399	-1086.99
0.3171,0.6829	-1083.17
0.2965,0.7035	-1087.27
0.3281,0.6719	-1087.01
0.2687,0.7313	-1083.30
0.3310,0.6690	-1080.70
0.3955,0.6045	-1091.95
0.3000,0.7000	-1088.05
0.2673,0.7327	-1077.29
0.3227,0.6773	-1088.48
0.3159,0.6841	-1086.24
0.3094,0.6906	-1083.85
0.3386,0.6614	-1085.10
0.2915,0.7085	-1079.41
0.2696,0.7304	-1085.27
0.3654,0.6346	-1092.14
0.3129,0.6871	-1087.03
0.3089,0.6911	-1083.04
0.3132,0.6868	-1088.60
0.2712,0.7288	-1080.27
0.3054,0.6946	-1082.18
0.3155,0.6845	-1090.11
0.3826,0.6174	-1088.38
0.3394,0.6606	-1083.13
0.2700,0.7300	-1075.31
0.2310,0.7690	-1073.21
0.3330,0.6670	-1090.52
0.2870,0.7130	-1076.62
0.4518,0.5482	-1095.04
0.3341,0.6659	-1083.61
0.2563,0.7437	-1070.95
0.2700,0.7300	-1083.27
0.3791,0.6209	-1088.23
0.3152,0.6848	-1085.46
0.4702,0.5298	-1095.13
0.3719,0.6281	-1085.33
0.2601,0.7399	-1079.40
0.2733,0.7267	-1078.30
0.3048,0.6952	-1078.05
0.2481,0.7519	-1078.58
0.4312,0.5688	-1092.82
0.3242,0.6758	-1087.73
0.2650,0.7350	-1084.43
0.2553,0.7447	-1086.99
0.3395,0.6605	-1082.46
0.2733,0.7267	-1082.21
0.4498,0.5502	-1095.58
0.3003,0.6997	-1081.27
0.2884,0.7116	-1074.85
0.2628,0.7372	-1082.45
0.3293,0.6707	-1085.60
0.2823,0.7177	-1080.23
0.4404,0.5596	-1095.66
0.2426,0.7574	-1077.60
0.2986,0.7014	-1082.10
0.2500,0.7500	-1074.14
0.3401,0.6599	-1083.15
0.2679,0.7321	-1083.33
0.4597,0.5403	-1095.80
0.2549,0.7451	-1080.58
0.2867,0.7133	-1082.99
0.2438,0.7562	-1086.62
0.2895,0.7105	-1091.05
0.3312,0.6688	-1084.92
0.4662,0.5338	-1096.10
0.2201,0.7799	-1074.79
0.3350,0.6650	-1089.81
0.2163,0.7837	-1078.83
0.3342,0.6658	-1086.37
0.3065,0.6935	-1078.11
0.4441,0.5559	-1095.25
0.2556,0.7444	-1073.07
0.2916,0.7084	-1079.41
0.2040,0.7960	-1074.34
0.3104,0.6896	-1085.45
0.2642,0.7358	-1090.61
0.3733,0.6267	-1093.70
0.2624,0.7376	-1076.27
0.3323,0.6677	-1089.13
0.2366,0.7634	-1074.28
0.2807,0.7193	-1083.06
0.2260,0.7740	-1083.18
0.3587,0.6413	-1092.17
0.2927,0.7073	-1090.02
0.3436,0.6564	-1087.19
0.2659,0.7341	-1080.34
0.3194,0.6806	-1087.75
0.2222,0.7778	-1068.44
0.3801,0.6199	-1091.21
0.2787,0.7213	-1084.04
0.3403,0.6597	-1087.80
0.2647,0.7353	-1078.31
0.3461,0.6539	-1084.05
0.2378,0.7622	-1075.42
0.3317,0.6683	-1085.63
0.2802,0.7198	-1082.12
0.3090,0.6910	-1085.45
0.2227,0.7773	-1075.93
0.2895,0.7105	-1080.28
0.2852,0.7148	-1083.00
0.3793,0.6207	-1091.69
0.3338,0.6662	-1081.52
0.2932,0.7068	-1076.79
0.2228,0.7772	-1075.93
0.2669,0.7331	-1082.35
0.3242,0.6758	-1089.20
0.3587,0.6413	-1085.78
0.3275,0.6725	-1089.17
0.3433,0.6567	-1091.07
0.2377,0.7623	-1070.76
0.2767,0.7233	-1085.04
0.3200,0.6800	-1084.74
0.3150,0.6850	-1083.13
0.2689,0.7311	-1080.30
0.3480,0.6520	-1090.41
0.2358,0.7642	-1084.88
0.2813,0.7187	-1083.99
0.3145,0.6855	-1079.22
0.2844,0.7156	-1079.32
0.2675,0.7325	-1074.27
0.3646,0.6354	-1088.81
0.2266,0.7734	-1070.86
0.2617,0.7383	-1082.49
0.3254,0.6746	-1084.81
0.3067,0.6933	-1083.83
0.2972,0.7028	-1074.35
0.3538,0.6462	-1089.81
0.2371,0.7629	-1075.44
0.2590,0.7410	-1078.37
0.3073,0.6927	-1092.77
0.3149,0.6851	-1085.46
0.2960,0.7040	-1083.82
0.3435,0.6565	-1083.30
0.2458,0.7542	-1082.01
0.2659,0.7341	-1084.40
0.3347,0.6653	-1084.32
0.3004,0.6996	-1087.19
0.3042,0.6958	-1078.03
0.3354,0.6646	-1082.28
0.2342,0.7658	-1081.44
0.2704,0.7296	-1079.29
0.3576,0.6424	-1092.77
0.2849,0.7151	-1088.53
0.3155,0.6845	-1081.59
0.3052,0.6948	-1078.89
0.2539,0.7461	-1073.06
0.3181,0.6819	-1084.71
0.3968,0.6032	-1089.47
0.2618,0.7382	-1087.67
0.2979,0.7021	-1086.39
0.2867,0.7133	-1083.90
0.2893,0.7107	-1087.47
0.3037,0.6963	-1082.16
0.3770,0.6230	-1091.66
0.2359,0.7641	-1080.17
0.3393,0.6607	-1088.45
0.2797,0.7203	-1084.96
0.2581,0.7419	-1081.55
0.2936,0.7064	-1086.47
0.3666,0.6334	-1083.94
0.2519,0.7481	-1074.14
0.3336,0.6664	-1084.98
0.3287,0.6713	-1083.44
0.2530,0.7470	-1081.72
0.2562,0.7438	-1081.61
0.3480,0.6520	-1083.50
0.2592,0.7408	-1077.32
0.2947,0.7053	-1083.83
0.3198,0.6802	-1084.73
0.2979,0.7021	-1080.38
0.2602,0.7398	-1081.49
0.3460,0.6540	-1087.23
0.2844,0.7156	-1083.93
0.2809,0.7191	-1080.23
0.3184,0.6816	-1090.05
0.2813,0.7187	-1087.74
0.2882,0.7118	-1085.69
0.3505,0.6495	-1087.94
0.2861,0.7139	-1082.99
0.2656,0.7344	-1074.24
0.3070,0.6930	-1087.09
0.2184,0.7816	-1083.79
0.2961,0.7039	-1088.15
0.3177,0.6823	-1090.06
0.2524,0.7476	-1077.39
0.2595,0.7405	-1080.46
0.2816,0.7184	-1083.04
0.2351,0.7649	-1073.13
0.2776,0.7224	-1081.19
0.2998,0.7002	-1088.05
0.2923,0.7077	-1081.19
0.2732,0.7268	-1089.06
0.3017,0.6983	-1086.33
0.2607,0.7393	-1078.35
0.2928,0.7072	-1081.19
0.2609,0.7391	-1083.55
0.2884,0.7116	-1074.85
0.2530,0.7470	-1089.30
0.2996,0.7004	-1085.51
0.2899,0.7101	-1077.59
0.2922,0.7078	-1083.84
0.3007,0.6993	-1084.66
0.2561,0.7439	-1081.61
0.3040,0.6960	-1083.82
0.3065,0.6935	-1083.83
0.3031,0.6969	-1082.15
0.3426,0.6574	-1081.31
0.3384,0.6616	-1085.77
0.2377,0.7623	-1074.26
0.3075,0.6925	-1082.21
0.3298,0.6702	-1084.89
0.2643,0.7357	-1079.34
0.3864,0.6136	-1089.93
0.3467,0.6533	-1091.68
0.2780,0.7220	-1075.46
0.3218,0.6782	-1083.27
0.3241,0.6759	-1083.32
0.2942,0.7058	-1082.95
0.3564,0.6436	-1093.96
0.3369,0.6631	-1083.02
0.2905,0.7095	-1077.61
0.3279,0.6721	-1082.70
0.3269,0.6731	-1090.62
0.2963,0.7037	-1074.31
0.3758,0.6242	-1090.13
0.3170,0.6830	-1087.00
0.2829,0.7171	-1077.45
0.2860,0.7140	-1084.82
0.2951,0.7049	-1087.31
0.2821,0.7179	-1090.51
0.3617,0.6383	-1086.48
0.3188,0.6812	-1083.96
0.2820,0.7180	-1078.37
0.3156,0.6844	-1076.95
0.3344,0.6656	-1087.06
0.2465,0.7535	-1080.86
0.3441,0.6559	-1085.26
0.2873,0.7127	-1086.62
0.2649,0.7351	-1079.33
0.3283,0.6717	-1087.73
0.3354,0.6646	-1087.07
0.2817,0.7183	-1079.30
0.3085,0.6915	-1086.26
0.3079,0.6921	-1084.65
0.2564,0.7436	-1083.73
0.3395,0.6605	-1084.46
0.3341,0.6659	-1087.75
0.3116,0.6884	-1084.66
0.3334,0.6666	-1083.59
0.2870,0.7130	-1086.63
0.2868,0.7132	-1081.17
0.3324,0.6676	-1089.13
0.3285,0.6715	-1082.01
0.3595,0.6405	-1090.44
0.2949,0.7051	-1089.93
0.3537,0.6463	-1090.41
0.3043,0.6957	-1085.47
0.3305,0.6695	-1084.91
0.3480,0.6520	-1090.41
0.3492,0.6508	-1087.29
0.3103,0.6897	-1079.86
0.3454,0.6546	-1087.22
0.3174,0.6826	-1084.71
0.2770,0.7230	-1079.28
0.3163,0.6837	-1085.47
0.3283,0.6717	-1087.73
0.2957,0.7043	-1089.90
0.3405,0.6595	-1085.15
0.3160,0.6840	-1086.24
0.2787,0.7213	-1082.14
0.3294,0.6706	-1092.00
0.3280,0.6720	-1084.14
0.3248,0.6752	-1094.32
0.2924,0.7076	-1077.65
0.3140,0.6860	-1088.58
0.2535,0.7465	-1077.38
0.3088,0.6912	-1086.26
0.3187,0.6813	-1083.20
0.3048,0.6952	-1094.54
0.3129,0.6871	-1074.44
0.3161,0.6839	-1094.72
0.2662,0.7338	-1081.35
0.2611,0.7389	-1083.55
0.2986,0.7014	-1085.52
0.3097,0.6903	-1083.05
0.3149,0.6851	-1086.24
0.2468,0.7532	-1084.19
0.2867,0.7133	-1077.52
0.3122,0.6878	-1087.03
0.2778,0.7222	-1083.10
0.3134,0.6866	-1080.75
0.3324,0.6676	-1087.04
0.2680,0.7320	-1078.30
0.3109,0.6891	-1088.64
0.3903,0.6097	-1091.85
0.2970,0.7030	-1084.68
0.2935,0.7065	-1088.23
0.3362,0.6638	-1088.44
0.2786,0.7214	-1080.23
0.3997,0.6003	-1092.05
0.3587,0.6413	-1084.62
0.2720,0.7280	-1081.25
0.3104,0.6896	-1085.45
0.3210,0.6790	-1089.99
0.2164,0.7836	-1081.39
0.3631,0.6369	-1092.71
0.3487,0.6513	-1083.53
0.2838,0.7162	-1088.57
0.3290,0.6710	-1087.02
0.3129,0.6871	-1087.03
0.2326,0.7674	-1080.34
0.3246,0.6754	-1089.20
0.3079,0.6921	-1083.84
0.3148,0.6852	-1090.13
0.3538,0.6462	-1084.99
0.3302,0.6698	-1090.56
0.2240,0.7760	-1079.61
0.2982,0.7018	-1088.09
0.2774,0.7226	-1082.15
0.2936,0.7064	-1089.10
0.3896,0.6104	-1090.49
0.3242,0.6758	-1084.06
0.2415,0.7585	-1068.48
0.3235,0.6765	-1083.31
0.2394,0.7606	-1070.76
0.3023,0.6977	-1089.67
0.3653,0.6347	-1099.33
0.3026,0.6974	-1081.31
0.2360,0.7640	-1070.77
0.3572,0.6428	-1091.60
0.2505,0.7495	-1086.19
0.3020,0.6980	-1095.54
0.4099,0.5901	-1092.69
0.2790,0.7210	-1085.93
0.2454,0.7546	-1070.79
0.3250,0.6750	-1086.27
0.2457,0.7543	-1079.77
0.2791,0.7209	-1082.13
0.3589,0.6411	-1090.43
0.2976,0.7024	-1088.11
0.2363,0.7637	-1082.50
0.3394,0.6606	-1083.79
0.2457,0.7543	-1085.37
0.3030,0.6970	-1083.81
0.3189,0.6811	-1089.27
0.2719,0.7281	-1090.12
0.2144,0.7856	-1072.47
0.3283,0.6717	-1089.16
0.2444,0.7556	-1074.17
0.2911,0.7089	-1083.85
0.3242,0.6758	-1085.53
0.2719,0.7281	-1092.09
0.2232,0.7768	-1079.66
0.3707,0.6293	-1085.26
0.2587,0.7413	-1069.95
0.3485,0.6515	-1088.53
0.3109,0.6891	-1080.68
0.2241,0.7759	-1087.05
0.2342,0.7658	-1075.52
0.3593,0.6407	-1084.07
0.2664,0.7336	-1076.28
0.2934,0.7066	-1085.59
0.3448,0.6552	-1084.00
0.2008,0.7992	-1077.32
0.2672,0.7328	-1078.30
0.3437,0.6563	-1085.25
0.2637,0.7363	-1093.72
0.2964,0.7036	-1086.41
0.3919,0.6081	-1092.32
0.2448,0.7552	-1087.69
0.2608,0.7392	-1083.56
0.2998,0.7002	-1090.60
0.2599,0.7401	-1078.36
0.2839,0.7161	-1074.69
0.3174,0.6826	-1086.24
0.2680,0.7320	-1081.32
0.2961,0.7039	-1082.95
0.2980,0.7020	-1083.81
0.2808,0.7192	-1078.35
0.2828,0.7172	-1086.75
0.3374,0.6626	-1091.14
0.2914,0.7086	-1083.85
0.3179,0.6821	-1085.47
0.2533,0.7467	-1083.87
0.2093,0.7907	-1078.01
0.2605,0.7395	-1084.61
0.3043,0.6957	-1082.17
0.2667,0.7333	-1081.34
0.3295,0.6705	-1087.73
0.2430,0.7570	-1066.23
0.2119,0.7881	-1071.26
0.2306,0.7694	-1075.63
0.3427,0.6573	-1089.78
0.3156,0.6844	-1078.50
0.3445,0.6555	-1084.63
0.2306,0.7694	-1078.04
0.2412,0.7588	-1082.23
0.2391,0.7609	-1077.71
0.3527,0.6473	-1083.73
0.3074,0.6926	-1089.52
0.3962,0.6038	-1092.81
0.2442,0.7558	-1084.34
0.2481,0.7519	-1078.58
0.2084,0.7916	-1076.74
0.3537,0.6463	-1088.00
0.3187,0.6813	-1081.68
0.3951,0.6049	-1087.69
0.2633,0.7367	-1077.30
0.2594,0.7406	-1082.56
0.2403,0.7597	-1076.52
0.3602,0.6398	-1085.85
0.3363,0.6637	-1085.04
0.3903,0.6097	-1092.30
0.2798,0.7202	-1086.85
0.2603,0.7397	-1079.40
0.2338,0.7662	-1067.22
0.3691,0.6309	-1084.63
0.3360,0.6640	-1087.76
0.3239,0.6761	-1086.26
0.2695,0.7305	-1078.30
0.2942,0.7058	-1082.08
0.2099,0.7901	-1073.99
0.3230,0.6770	-1086.26
0.3549,0.6451	-1086.23
0.2648,0.7352	-1083.42
0.2736,0.7264	-1091.97
0.3540,0.6460	-1085.60
0.2157,0.7843	-1077.58
0.2976,0.7024	-1077.80
0.3212,0.6788	-1089.99
0.3066,0.6934	-1077.30
0.2611,0.7389	-1081.47
0.3458,0.6542	-1089.14
0.2597,0.7403	-1077.31
0.3018,0.6982	-1077.10
0.3000,0.7000	-1082.12
0.2737,0.7263	-1082.21
0.2480,0.7520	-1089.67
0.3190,0.6810	-1082.45
0.2479,0.7521	-1081.92
0.3000,0.7000	-1089.74
0.2349,0.7651	-1079.04
0.2424,0.7576	-1075.33
0.2260,0.7740	-1079.49
0.2782,0.7218	-1080.23
0.2675,0.7325	-1084.35
0.2701,0.7299	-1079.29
0.2584,0.7416	-1080.49
0.2571,0.7429	-1076.27
0.2501,0.7499	-1075.24
0.2741,0.7259	-1076.36
0.2942,0.7058	-1086.45
0.2815,0.7185	-1081.17
0.2579,0.7421	-1082.61
0.2644,0.7356	-1084.46
0.2410,0.7590	-1083.39
0.2783,0.7217	-1080.23
0.3080,0.6920	-1081.41
0.3257,0.6743	-1088.46
0.2509,0.7491	-1078.51
0.2584,0.7416	-1078.38
0.2844,0.7156	-1082.09
0.2645,0.7355	-1081.38
0.3435,0.6565	-1092.37
0.3379,0.6621	-1085.08
0.2672,0.7328	-1076.28
0.2683,0.7317	-1075.29
0.2685,0.7315	-1079.30
0.3088,0.6912	-1087.87
0.2916,0.7084	-1084.74
0.3734,0.6266	-1090.08
0.2435,0.7565	-1077.58
0.2666,0.7334	-1085.39
0.2673,0.7327	-1081.33
0.2834,0.7166	-1087.66
0.3179,0.6821	-1084.71
0.3876,0.6124	-1089.52
0.2601,0.7399	-1082.54
0.2577,0.7423	-1081.56
0.2800,0.7200	-1082.12
0.2983,0.7017	-1076.97
0.3252,0.6748	-1081.16
0.3735,0.6265	-1086.46
0.2770,0.7230	-1074.48
0.2968,0.7032	-1082.09
0.3058,0.6942	-1086.28
0.2578,0.7422	-1079.44
0.3004,0.6996	-1081.28
0.4303,0.5697	-1093.90
0.2598,0.7402	-1081.50
0.2878,0.7122	-1076.64
0.3030,0.6970	-1088.81
0.2763,0.7237	-1081.20
0.3043,0.6957	-1081.34
0.3626,0.6374	-1091.02
0.2306,0.7694	-1079.24
0.2858,0.7142	-1085.74
0.2836,0.7164	-1074.68
0.2683,0.7317	-1072.28
0.3778,0.6222	-1092.67
0.3452,0.6548	-1091.70
0.2560,0.7440	-1088.01
0.3663,0.6337	-1087.76
0.2747,0.7253	-1083.16
0.3092,0.6908	-1083.85
0.3664,0.6336	-1087.76
0.3632,0.6368	-1088.78
0.2965,0.7035	-1075.18
0.3573,0.6427	-1091.01
0.2809,0.7191	-1083.99
0.3068,0.6932	-1084.65
0.3229,0.6771	-1090.70
0.3479,0.6521	-1090.41
0.3428,0.6572	-1086.52
0.3025,0.6975	-1082.98
0.2919,0.7081	-1081.19
0.2968,0.7032	-1085.54
0.3033,0.6967	-1083.82
0.3316,0.6684	-1091.94
0.3659,0.6341	-1087.74
0.2802,0.7198	-1081.18
0.2944,0.7056	-1082.95
0.3211,0.6789	-1086.25
0.3045,0.6955	-1083.82
0.3710,0.6290	-1091.09
0.3380,0.6620	-1085.76
0.3032,0.6968	-1087.14
0.3766,0.6234	-1089.64
0.3217,0.6783	-1089.98
0.2578,0.7422	-1078.39
0.3342,0.6658	-1089.82
0.3969,0.6031	-1094.50
0.2967,0.7033	-1085.54
0.4033,0.5967	-1092.53
0.3502,0.6498	-1087.93
0.3368,0.6632	-1089.12
0.2981,0.7019	-1084.67
0.3769,0.6231	-1090.15
0.2798,0.7202	-1071.72
0.4301,0.5699	-1093.05
0.3174,0.6826	-1093.13
0.3545,0.6455	-1088.01
0.3090,0.6910	-1081.43
0.3613,0.6387	-1088.74
0.3062,0.6938	-1089.55
0.4526,0.5474	-1095.64
0.3372,0.6628	-1085.74
0.3613,0.6387	-1087.03
0.2793,0.7207	-1081.18
0.3164,0.6836	-1087.01
0.2721,0.7279	-1079.28
0.4705,0.5295	-1095.39
0.3329,0.6671	-1088.44
0.3665,0.6335	-1091.59
0.2631,0.7369	-1082.45
0.2980,0.7020	-1083.81
0.2667,0.7333	-1082.35
0.4612,0.5388	-1094.59
0.3387,0.6613	-1090.46
0.3306,0.6694	-1087.03
0.2293,0.7707	-1072.03
0.2876,0.7124	-1082.07
0.2245,0.7755	-1079.57
0.4178,0.5822	-1091.59
0.3658,0.6342	-1093.24
0.3134,0.6866	-1086.24
0.2521,0.7479	-1075.22
0.3073,0.6927	-1083.02
0.2346,0.7654	-1070.77
0.3172,0.6828	-1083.17
0.3286,0.6714	-1088.44
0.2897,0.7103	-1079.38
0.2631,0.7369	-1080.39
0.2523,0.7477	-1081.74
0.2443,0.7557	-1077.56
0.3154,0.6846	-1083.14
0.3307,0.6693	-1087.03
0.2846,0.7154	-1076.56
0.2621,0.7379	-1081.44
0.2513,0.7487	-1081.78
0.2414,0.7586	-1077.64
0.3004,0.6996	-1089.73
0.3526,0.6474	-1086.76
0.3196,0.6804	-1087.75
0.2186,0.7814	-1074.86
0.2359,0.7641	-1078.99
0.2611,0.7389	-1085.63
0.2847,0.7153	-1077.48
0.3436,0.6564	-1083.95
0.3480,0.6520	-1090.41
0.1824,0.8176	-1073.19
0.2217,0.7783	-1068.44
0.2427,0.7573	-1077.60
0.2901,0.7099	-1086.55
0.2938,0.7062	-1082.95
0.3258,0.6742	-1089.91
0.1791,0.8209	-1070.48
0.2376,0.7624	-1080.09
0.2298,0.7702	-1087.74
0.2657,0.7343	-1075.26
0.2488,0.7512	-1080.77
0.3198,0.6802	-1090.77
0.1928,0.8072	-1072.31
0.2286,0.7714	-1069.61
0.2507,0.7493	-1089.47
0.2484,0.7516	-1075.25
0.2403,0.7597	-1082.27
0.3726,0.6274	-1083.81
0.1700,0.8300	-1071.38
0.2488,0.7512	-1076.35
0.3011,0.6989	-1082.97
0.2410,0.7590	-1092.57
0.2534,0.7466	-1090.35
0.4130,0.5870	-1092.42
0.2174,0.7826	-1078.75
0.2434,0.7566	-1083.25
0.3079,0.6921	-1086.27
0.2505,0.7495	-1082.90
0.2523,0.7477	-1083.91
0.4559,0.5441	-1095.71
0.2515,0.7485	-1085.04
0.2696,0.7304	-1079.29
0.2887,0.7113	-1090.19
0.2966,0.7034	-1082.95
0.2553,0.7447	-1088.06
0.4251,0.5749	-1092.55
0.2877,0.7123	-1080.26
0.2454,0.7546	-1086.51
0.2668,0.7332	-1076.28
0.3205,0.6795	-1088.50
0.2849,0.7151	-1080.24
0.4320,0.5680	-1094.50
0.3004,0.6996	-1079.59
0.2278,0.7722	-1076.94
0.2984,0.7016	-1078.68
0.3140,0.6860	-1081.55
0.3048,0.6952	-1083.00
0.3882,0.6118	-1091.81
0.2748,0.7252	-1084.13
0.2454,0.7546	-1074.16
0.3295,0.6705	-1087.73
0.3061,0.6939	-1088.74
0.3089,0.6911	-1085.46
0.3934,0.6066	-1094.08
0.3044,0.6956	-1087.13
0.2502,0.7498	-1080.72
0.3317,0.6683	-1081.43
0.3306,0.6694	-1087.03
0.2747,0.7253	-1084.13
0.3267,0.6733	-1084.11
0.3192,0.6808	-1086.24
0.2687,0.7313	-1082.30
0.3377,0.6623	-1087.10
0.2726,0.7274	-1082.22
0.2624,0.7376	-1086.60
0.3069,0.6931	-1082.20
0.3106,0.6894	-1079.08
0.2317,0.7683	-1071.99
0.3384,0.6616	-1087.78
0.2963,0.7037	-1085.55
0.2390,0.7610	-1077.71
0.3535,0.6465	-1089.20
0.3234,0.6766	-1079.61
0.2735,0.7265	-1081.23
0.3429,0.6571	-1085.22
0.3417,0.6583	-1082.57
0.2826,0.7174	-1079.30
0.3126,0.6874	-1082.30
0.3381,0.6619	-1084.42
0.2934,0.7066	-1077.68
0.3779,0.6221	-1093.66
0.3667,0.6333	-1085.04
0.3047,0.6953	-1085.47
0.3007,0.6993	-1090.56
0.3466,0.6534	-1086.61
0.3151,0.6849	-1084.68
0.3636,0.6364	-1091.03
0.3758,0.6242	-1090.13
0.3135,0.6865	-1088.59
0.2817,0.7183	-1078.36
0.3803,0.6197	-1096.58
0.3264,0.6736	-1081.21
0.3096,0.6904	-1085.45
0.3289,0.6711	-1093.44
0.3508,0.6492	-1087.33
0.2830,0.7170	-1084.88
0.4028,0.5972	-1091.73
0.3034,0.6966	-1079.66
0.3251,0.6749	-1083.35
0.2913,0.7087	-1076.74
0.3109,0.6891	-1083.86
0.2860,0.7140	-1078.42
0.4154,0.5846	-1091.82
0.2951,0.7049	-1078.60
0.3467,0.6533	-1080.90
0.2850,0.7150	-1074.73
0.2826,0.7174	-1085.82
0.2858,0.7142	-1083.91
0.4185,0.5815	-1093.59
0.2874,0.7126	-1093.88
0.3223,0.6777	-1083.28
0.3189,0.6811	-1088.52
0.2551,0.7449	-1083.79
0.2490,0.7510	-1085.18
0.3946,0.6054	-1089.79
0.2942,0.7058	-1081.20
0.3117,0.6883	-1094.96
0.3175,0.6825	-1087.77
0.2444,0.7556	-1082.07
0.3025,0.6975	-1072.95
0.4146,0.5854	-1090.75
0.2564,0.7436	-1076.28
0.2828,0.7172	-1080.24
0.3343,0.6657	-1088.44
0.2541,0.7459	-1089.21
0.2902,0.7098	-1083.86
0.4027,0.5973	-1089.76
0.2219,0.7781	-1074.71
0.3449,0.6551	-1087.85
0.3663,0.6337	-1087.76
0.2853,0.7147	-1082.08
0.3202,0.6798	-1084.74
0.3993,0.6007	-1096.53
0.2461,0.7539	-1079.75
0.3520,0.6480	-1083.69
0.3166,0.6834	-1085.47
0.2624,0.7376	-1079.37
0.3236,0.6764	-1088.47
0.3872,0.6128	-1087.20
0.3008,0.6992	-1082.97
0.3277,0.6723	-1087.73
0.3091,0.6909	-1082.24
0.2641,0.7359	-1080.37
0.3428,0.6572	-1086.52
0.3566,0.6434	-1082.75
0.3012,0.6988	-1082.97
0.2612,0.7388	-1076.26
0.3285,0.6715	-1082.72
0.2456,0.7544	-1087.63
0.3283,0.6717	-1086.30
0.3695,0.6305	-1091.61
0.3171,0.6829	-1078.56
0.3071,0.6929	-1089.53
0.2749,0.7251	-1087.03
0.2854,0.7146	-1083.00
0.3431,0.6569	-1091.72
0.2847,0.7153	-1087.61
0.3599,0.6401	-1082.96
0.2972,0.7028	-1088.12
0.3011,0.6989	-1078.76
0.2599,0.7401	-1084.64
0.3257,0.6743	-1085.55
0.2774,0.7226	-1085.98
0.3714,0.6286	-1092.67
0.2982,0.7018	-1076.11
0.3043,0.6957	-1084.65
0.1998,0.8002	-1077.40
0.2875,0.7125	-1082.98
0.2724,0.7276	-1085.17
0.3631,0.6369	-1085.97
0.2886,0.7114	-1084.78
0.2732,0.7268	-1082.21
0.2079,0.7921	-1080.79
0.2959,0.7041	-1086.42
0.3131,0.6869	-1083.10
0.2885,0.7115	-1082.07
0.3079,0.6921	-1085.46
0.3062,0.6938	-1080.55
0.2195,0.7805	-1076.09
0.2636,0.7364	-1078.32
0.2930,0.7070	-1083.84
0.3066,0.6934	-1081.38
0.3741,0.6259	-1091.12
0.2473,0.7527	-1088.62
0.2206,0.7794	-1070.98
0.2555,0.7445	-1083.77
0.3043,0.6957	-1086.30
0.2989,0.7011	-1084.66
0.3680,0.6320	-1091.06
0.2783,0.7217	-1087.86
0.2413,0.7587	-1074.20
0.2560,0.7440	-1082.68
0.2476,0.7524	-1084.15
0.2734,0.7266	-1078.30
0.3640,0.6360	-1083.77
0.2925,0.7075	-1077.66
0.2371,0.7629	-1082.45
0.2618,0.7382	-1077.30
0.2852,0.7148	-1082.08
0.2412,0.7588	-1089.10
0.2994,0.7006	-1084.66
0.2960,0.7040	-1082.95
0.2298,0.7702	-1088.96
0.2619,0.7381	-1081.44
0.2932,0.7068	-1091.76
0.2664,0.7336	-1074.25
0.3175,0.6825	-1083.18
0.3022,0.6978	-1082.98
0.2251,0.7749	-1082.01
0.2623,0.7377	-1078.33
0.2651,0.7349	-1089.53
0.2474,0.7526	-1075.26
0.3512,0.6488	-1085.50
0.2891,0.7109	-1079.37
0.2739,0.7261	-1078.30
0.2413,0.7587	-1073.06
0.2389,0.7611	-1081.19
0.2281,0.7719	-1073.27
0.3513,0.6487	-1092.86
0.2662,0.7338	-1079.32
0.2769,0.7231	-1081.20
0.2329,0.7671	-1081.51
0.2660,0.7340	-1078.31
0.2701,0.7299	-1088.24
0.3531,0.6469	-1084.96
0.2367,0.7633	-1083.65
0.3132,0.6868	-1090.17
0.2345,0.7655	-1074.32
0.2585,0.7415	-1084.70
0.2626,0.7374	-1077.30
0.3224,0.6776	-1084.77
0.2571,0.7429	-1087.94
0.3886,0.6114	-1088.65
0.2077,0.7923	-1078.13
0.2518,0.7482	-1081.76
0.2818,0.7182	-1086.78
0.3103,0.6897	-1091.04
0.2473,0.7527	-1083.06
0.3853,0.6147	-1090.83
0.2930,0.7070	-1092.65
0.2511,0.7489	-1080.69
0.2581,0.7419	-1083.66
0.2927,0.7073	-1085.60
0.2496,0.7504	-1077.44
0.3953,0.6047	-1089.40
0.2699,0.7301	-1077.30
0.2438,0.7562	-1083.23
0.2290,0.7710	-1078.11
0.3435,0.6565	-1089.78
0.2373,0.7627	-1081.27
0.3778,0.6222	-1088.67
0.2588,0.7412	-1080.48
0.2506,0.7494	-1086.19
0.2541,0.7459	-1082.75
0.3882,0.6118	-1091.36
0.2773,0.7227	-1082.15
0.3405,0.6595	-1084.49
0.2762,0.7238	-1083.13
0.2323,0.7677	-1074.38
0.2844,0.7156	-1083.01
0.4199,0.5801	-1092.01
0.2705,0.7295	-1079.29
0.3022,0.6978	-1087.16
0.2374,0.7626	-1076.60
0.2547,0.7453	-1076.29
0.2907,0.7093	-1088.32
0.4186,0.5814	-1092.94
0.2578,0.7422	-1075.21
0.3368,0.6632	-1092.51
0.2699,0.7301	-1072.32
0.2813,0.7187	-1080.23
0.2809,0.7191	-1083.99
0.4339,0.5661	-1093.74
0.2782,0.7218	-1085.00
0.3644,0.6356	-1087.70
0.2764,0.7236	-1083.13
0.2958,0.7042	-1090.76
0.3304,0.6696	-1090.56
0.4369,0.5631	-1093.34
0.2985,0.7015	-1080.40
0.3648,0.6352	-1089.93
0.2641,0.7359	-1078.32
0.2509,0.7491	-1076.32
0.3328,0.6672	-1084.26
0.4145,0.5855	-1090.74
0.3090,0.6910	-1080.63
0.3259,0.6741	-1085.55
0.2924,0.7076	-1076.77
0.2789,0.7211	-1088.78
0.3479,0.6521	-1088.52
0.3859,0.6141	-1093.17
0.3022,0.6978	-1087.16
0.3076,0.6924	-1085.46
0.3146,0.6854	-1085.46
0.2913,0.7087	-1082.07
0.3350,0.6650	-1076.78
0.3853,0.6147	-1094.10
0.2658,0.7342	-1077.29
0.3437,0.6563	-1089.78
0.3346,0.6654	-1085.00
0.2931,0.7069	-1080.31
0.3155,0.6845	-1083.91
0.4050,0.5950	-1096.03
0.2628,0.7372	-1087.61
0.3596,0.6404	-1089.28
0.3308,0.6692	-1087.73
0.2963,0.7037	-1086.41
0.2982,0.7018	-1084.67
0.3956,0.6044	-1086.87
0.2896,0.7104	-1082.07
0.3560,0.6440	-1090.42
0.2609,0.7391	-1075.22
0.3400,0.6600	-1083.15
0.3710,0.6290	-1086.86
0.4507,0.5493	-1094.21
0.2657,0.7343	-1075.26
0.3693,0.6307	-1090.00
0.2953,0.7047	-1083.82
0.3656,0.6344	-1086.63
0.3599,0.6401	-1087.56
0.4185,0.5815	-1095.24
0.2572,0.7428	-1078.39
0.4196,0.5804	-1092.97
0.2832,0.7168	-1083.95
0.3402,0.6598	-1089.12
0.3380,0.6620	-1086.43
0.4251,0.5749	-1092.85
0.2767,0.7233	-1082.16
0.3667,0.6333	-1088.86
0.2845,0.7155	-1084.85
0.2732,0.7268	-1085.15
0.3323,0.6677	-1089.83
0.4311,0.5689	-1094.76
0.2421,0.7579	-1073.05
0.3704,0.6296	-1090.02
0.2679,0.7321	-1083.33
0.2527,0.7473	-1084.98
0.3359,0.6641	-1084.35
0.3741,0.6259	-1091.64
0.2356,0.7644	-1084.89
0.4541,0.5459	-1095.49
0.3159,0.6841	-1085.46
0.2278,0.7722	-1074.50
0.2709,0.7291	-1088.20
0.3824,0.6176	-1089.81
0.2759,0.7241	-1079.28
0.4466,0.5534	-1092.73
0.3455,0.6545	-1084.02
0.2304,0.7696	-1073.22
0.2825,0.7175	-1082.10
0.3615,0.6385	-1087.61
0.3131,0.6869	-1085.46
0.4507,0.5493	-1092.43
0.3341,0.6659	-1087.06
0.2474,0.7526	-1080.82
0.3144,0.6856	-1085.46
0.3223,0.6777	-1083.28
0.2979,0.7021	-1082.10
0.4445,0.5555	-1094.82
0.3480,0.6520	-1086.64
0.2138,0.7862	-1079.00
0.3010,0.6990	-1088.87
0.2891,0.7109	-1084.77
0.2887,0.7113	-1087.48
0.4053,0.5947	-1094.11
0.3283,0.6717	-1082.00
0.2234,0.7766	-1085.87
0.3040,0.6960	-1082.99
0.2998,0.7002	-1084.66
0.3619,0.6381	-1088.19
0.3893,0.6107	-1090.93
0.3392,0.6608	-1094.45
0.2254,0.7746	-1069.65
0.2648,0.7352	-1075.25
0.2998,0.7002	-1085.51
0.3397,0.6603	-1089.12
0.3857,0.6143	-1090.38
0.3498,0.6502	-1082.97
0.2262,0.7738	-1081.94
0.2427,0.7573	-1078.74
0.3244,0.6756	-1084.80
0.3449,0.6551	-1087.21
0.3625,0.6375	-1092.15
0.3083,0.6917	-1081.42
0.2671,0.7329	-1081.33
0.2550,0.7450	-1077.36
0.2742,0.7258	-1070.52
0.3173,0.6827	-1080.11
0.3291,0.6709	-1084.17
0.2652,0.7348	-1079.33
0.2441,0.7559	-1075.30
0.1988,0.8012	-1069.13
0.3015,0.6985	-1088.01
0.3134,0.6866	-1087.81
0.3757,0.6243	-1091.14
0.2483,0.7517	-1084.11
0.2363,0.7637	-1071.94
0.1992,0.8008	-1077.45
0.3027,0.6973	-1077.14
0.3288,0.6712	-1089.87
0.3715,0.6285	-1088.46
0.2171,0.7829	-1078.78
0.2675,0.7325	-1086.36
0.2219,0.7781	-1080.99
0.2867,0.7133	-1079.34
0.2990,0.7010	-1081.26
0.3575,0.6425	-1090.42
0.2007,0.7993	-1067.65
0.2906,0.7094	-1084.75
0.2537,0.7463	-1082.77
0.2888,0.7112	-1080.27
0.3147,0.6853	-1077.68
0.3683,0.6317	-1088.90
0.2030,0.7970	-1073.04
0.3245,0.6755	-1087.73
0.3003,0.6997	-1081.27
0.2609,0.7391	-1090.84
0.2956,0.7044	-1085.56
0.3103,0.6897	-1080.66
0.2083,0.7917	-1083.43
0.3176,0.6824	-1087.77
0.3021,0.6979	-1082.14
0.2971,0.7029	-1081.23
0.2892,0.7108	-1087.47
0.2814,0.7186	-1084.92
0.2367,0.7633	-1080.13
0.3467,0.6533	-1086.61
0.2974,0.7026	-1082.10
0.3042,0.6958	-1086.30
0.3052,0.6948	-1079.71
0.2415,0.7585	-1083.36
0.2643,0.7357	-1077.29
0.2862,0.7138	-1080.25
0.2895,0.7105	-1082.07
0.3052,0.6948	-1083.82
0.3248,0.6752	-1084.07
0.2810,0.7190	-1084.93
0.2725,0.7275	-1076.34
0.3200,0.6800	-1084.73
0.2616,0.7384	-1087.68
0.3335,0.6665	-1086.36
0.3578,0.6422	-1089.26
0.2890,0.7110	-1082.07
0.2715,0.7285	-1081.26
0.2998,0.7002	-1083.81
0.2752,0.7248	-1075.40
0.3324,0.6676	-1084.25
0.3530,0.6470	-1092.83
0.2864,0.7136	-1087.55
0.2704,0.7296	-1083.26
0.2610,0.7390	-1090.83
0.2689,0.7311	-1083.30
0.2974,0.7026	-1082.10
0.3188,0.6812	-1086.24
0.3008,0.6992	-1082.12
0.2393,0.7607	-1082.33
0.3245,0.6755	-1091.40
0.2478,0.7522	-1073.04
0.3531,0.6469	-1087.99
0.3042,0.6958	-1082.99
0.2711,0.7289	-1080.28
0.2787,0.7213	-1078.33
0.3319,0.6681	-1083.54
0.2575,0.7425	-1079.45
0.3468,0.6532	-1082.81
0.3303,0.6697	-1089.85
0.3004,0.6996	-1082.12
0.2967,0.7033	-1083.82
0.3108,0.6892	-1085.45
0.2565,0.7435	-1086.92
0.3268,0.6732	-1081.22
0.3330,0.6670	-1084.96
0.2991,0.7009	-1086.37
0.3283,0.6717	-1089.16
0.3375,0.6625	-1090.47
0.2770,0.7230	-1079.28
0.2914,0.7086	-1085.63
0.2966,0.7034	-1085.55
0.3383,0.6617	-1081.74
0.3386,0.6614	-1094.48
0.2973,0.7027	-1082.96
0.3034,0.6966	-1081.32
0.2952,0.7048	-1082.08
0.2978,0.7022	-1079.52
0.3144,0.6856	-1083.12
0.3269,0.6731	-1084.84
0.2929,0.7071	-1078.55
0.3031,0.6969	-1093.80
0.3044,0.6956	-1082.17
0.2769,0.7231	-1084.08
0.3337,0.6663	-1085.67
0.3593,0.6407	-1085.81
0.2969,0.7031	-1084.68
0.3156,0.6844	-1082.37
0.3536,0.6464	-1088.60
0.2846,0.7154	-1083.93
0.2980,0.7020	-1082.10
0.3673,0.6327	-1090.51
0.2975,0.7025	-1082.96
0.3202,0.6798	-1087.00
0.3405,0.6595	-1087.80
0.3108,0.6892	-1083.06
0.2587,0.7413	-1081.53
0.3561,0.6439	-1086.27
0.2865,0.7135	-1080.25
0.2883,0.7117	-1082.98
0.3392,0.6608	-1085.78
0.2686,0.7314	-1077.30
0.2643,0.7357	-1078.32
0.3436,0.6564	-1087.83
0.2998,0.7002	-1082.12
0.3261,0.6739	-1086.28
0.3538,0.6462	-1083.18
0.2692,0.7308	-1084.29
0.2561,0.7439	-1079.48
0.3444,0.6556	-1087.20
0.3134,0.6866	-1083.10
0.3175,0.6825	-1084.71
0.3230,0.6770	-1084.78
0.2478,0.7522	-1080.81
0.3190,0.6810	-1083.21
0.3212,0.6788	-1090.74
0.3308,0.6692	-1084.21
0.3290,0.6710	-1092.72
0.3461,0.6539	-1087.87
0.2244,0.7756	-1073.38
0.3124,0.6876	-1083.88
0.3346,0.6654	-1088.44
0.3066,0.6934	-1087.91
0.2901,0.7099	-1083.86
0.3948,0.6052	-1093.22
0.2421,0.7579	-1084.46
0.2947,0.7053	-1081.21
0.3045,0.6955	-1085.47
0.3141,0.6859	-1086.24
0.3289,0.6711	-1085.59
0.3906,0.6094	-1089.19
0.2725,0.7275	-1077.32
0.2553,0.7447	-1083.78
0.2927,0.7073	-1086.48
0.3322,0.6678	-1089.13
0.3262,0.6738	-1088.45
0.3883,0.6117	-1091.36
0.3154,0.6846	-1082.36
0.2304,0.7696	-1079.25
0.3046,0.6954	-1082.17
0.3397,0.6603	-1084.47
0.3626,0.6374	-1088.77
0.2938,0.7062	-1082.95
0.3386,0.6614	-1085.77
0.2624,0.7376	-1077.30
0.3607,0.6393	-1089.87
0.3031,0.6969	-1083.82
0.3353,0.6647	-1090.49
0.3275,0.6725	-1088.45
0.3674,0.6326	-1088.88
0.2817,0.7183	-1077.43
0.3558,0.6442	-1086.85
0.2989,0.7011	-1080.40
0.3295,0.6705	-1088.44
0.3428,0.6572	-1087.17
0.3887,0.6113	-1088.20
0.3166,0.6834	-1087.01
0.3915,0.6085	-1090.99
0.3278,0.6722	-1081.98
0.3473,0.6527	-1085.99
0.3176,0.6824	-1089.30
0.3530,0.6470	-1088.59
0.3055,0.6945	-1083.00
0.4277,0.5723	-1091.79
0.3130,0.6870	-1087.03
0.3259,0.6741	-1085.55
0.2894,0.7106	-1085.66
0.3229,0.6771	-1087.74
0.3241,0.6759	-1084.06
0.3551,0.6449	-1086.83
0.3250,0.6750	-1088.46
0.3072,0.6928	-1084.65
0.2771,0.7229	-1081.20
0.2879,0.7121	-1077.54
0.3409,0.6591	-1087.80
0.3283,0.6717	-1088.44
0.2636,0.7364	-1086.54
0.2774,0.7226	-1082.15
0.2739,0.7261	-1081.23
0.3106,0.6894	-1087.85
0.3085,0.6915	-1083.03
0.3628,0.6372	-1086.52
0.2710,0.7290	-1083.24
0.3170,0.6830	-1078.56
0.2778,0.7222	-1091.70
0.3252,0.6748	-1084.81
0.2901,0.7099	-1088.33
0.3369,0.6631	-1083.70
0.3222,0.6778	-1085.51
0.3444,0.6556	-1090.42
0.3207,0.6793	-1090.00
0.2692,0.7308	-1083.29
0.3409,0.6591	-1084.51
0.3528,0.6472	-1084.34
0.3095,0.6905	-1091.87
0.3643,0.6357	-1088.25
0.3356,0.6644	-1090.49
0.2782,0.7218	-1080.23
0.3584,0.6416	-1085.77
0.3118,0.6882	-1086.25
0.2923,0.7077	-1076.77
0.3400,0.6600	-1082.49
0.3302,0.6698	-1082.07
0.2442,0.7558	-1083.21
0.4165,0.5835	-1093.89
0.2803,0.7197	-1087.78
0.2779,0.7221	-1080.23
0.3433,0.6567	-1085.24
0.3258,0.6742	-1089.18
0.2389,0.7611	-1083.51
0.4112,0.5888	-1091.65
0.2634,0.7366	-1075.24
0.2861,0.7139	-1084.82
0.3197,0.6803	-1086.24
0.3063,0.6937	-1079.74
0.2254,0.7746	-1075.82
0.3417,0.6583	-1087.15
0.2527,0.7473	-1083.89
0.2694,0.7306	-1080.29
0.3515,0.6485	-1086.73
0.3449,0.6551	-1087.85
0.2051,0.7949	-1089.17
0.3964,0.6036	-1091.55
0.2385,0.7615	-1077.73
0.3063,0.6937	-1087.10
0.3362,0.6638	-1091.84
0.3868,0.6132	-1091.33
0.2175,0.7825	-1080.03
0.4511,0.5489	-1095.21
0.2548,0.7452	-1078.43
0.3715,0.6285	-1090.57
0.3494,0.6506	-1087.92
0.4492,0.5508	-1093.74
0.2569,0.7431	-1090.08
0.3830,0.6170	-1092.21
0.2475,0.7525	-1079.71
0.3633,0.6367	-1088.22
0.4079,0.5921	-1093.39
0.4573,0.5427	-1093.69
0.2463,0.7537	-1081.98
0.3669,0.6331	-1089.41
0.2385,0.7615	-1066.12
0.3232,0.6768	-1090.69
0.4305,0.5695	-1095.31
0.4140,0.5860	-1090.72
0.2785,0.7215	-1084.99
0.3433,0.6567	-1085.88
0.2480,0.7520	-1080.80
0.3311,0.6689	-1091.95
0.3851,0.6149	-1089.42
0.4040,0.5960	-1090.21
0.2920,0.7080	-1086.50
0.3250,0.6750	-1089.92
0.2132,0.7868	-1081.66
0.3399,0.6601	-1081.16
0.4057,0.5943	-1092.21
0.4059,0.5941	-1095.26
0.2633,0.7367	-1080.38
0.3318,0.6682	-1089.14
0.1968,0.8032	-1084.69
0.3139,0.6861	-1082.33
0.3770,0.6230	-1095.68
0.4003,0.5997	-1089.64
0.2663,0.7337	-1075.27
0.3274,0.6726	-1082.69
0.2197,0.7803	-1084.94
0.3763,0.6237	-1091.65
0.4097,0.5903	-1093.78
0.3390,0.6610	-1092.46
0.2694,0.7306	-1086.28
0.3299,0.6701	-1084.19
0.2459,0.7541	-1075.28
0.3246,0.6754	-1081.87
0.3645,0.6355	-1089.92
0.3230,0.6770	-1089.22
0.2795,0.7205	-1084.02
0.3136,0.6864	-1080.76
0.2404,0.7596	-1069.61
0.2978,0.7022	-1083.81
0.3648,0.6352	-1089.93
0.3241,0.6759	-1084.79
0.3153,0.6847	-1082.36
0.3173,0.6827	-1080.11
0.2284,0.7716	-1075.70
0.2520,0.7480	-1079.57
0.4172,0.5828	-1093.23
0.3384,0.6616	-1088.45
0.3113,0.6887	-1090.22
0.2986,0.7014	-1089.79
0.2598,0.7402	-1087.78
0.2352,0.7648	-1074.31
0.3574,0.6426	-1085.14
0.3200,0.6800	-1082.47
0.3069,0.6931	-1091.16
0.3509,0.6491	-1086.10
0.2705,0.7295	-1079.29
0.2572,0.7428	-1083.70
0.3073,0.6927	-1087.90
0.2654,0.7346	-1081.36
0.3280,0.6720	-1087.01
0.3682,0.6318	-1087.82
0.3161,0.6839	-1087.01
0.2650,0.7350	-1085.46
0.3289,0.6711	-1085.59
0.2430,0.7570	-1070.78
0.3368,0.6632	-1092.51
0.3469,0.6531	-1088.51
0.2947,0.7053	-1079.46
0.2887,0.7113	-1084.78
0.2815,0.7185	-1082.11
0.2507,0.7493	-1080.71
0.3555,0.6445	-1088.04
0.2997,0.7003	-1085.51
0.2734,0.7266	-1083.19
0.2286,0.7714	-1078.13
0.2858,0.7142	-1082.08
0.2473,0.7527	-1081.94
0.3653,0.6347	-1087.72
0.3196,0.6804	-1084.73
0.3136,0.6864	-1090.16
0.2156,0.7844	-1086.63
0.2448,0.7552	-1078.67
0.2553,0.7447	-1077.35
0.3604,0.6396	-1093.31
0.3089,0.6911	-1089.48
0.2992,0.7008	-1074.45
0.2166,0.7834	-1074.95
0.2509,0.7491	-1079.60
0.2503,0.7497	-1077.43
0.4085,0.5915	-1091.55
0.3312,0.6688	-1084.92
0.3226,0.6774	-1084.77
0.2271,0.7729	-1083.10
0.2886,0.7114	-1078.46
0.2984,0.7016	-1076.97
0.3584,0.6416	-1088.10
0.3126,0.6874	-1094.12
0.3358,0.6642	-1088.44
0.2443,0.7557	-1078.69
0.2827,0.7173	-1087.68
0.2873,0.7127	-1078.44
0.3320,0.6680	-1085.64
0.3573,0.6427	-1088.66
0.3660,0.6340	-1084.45
0.2337,0.7663	-1074.34
0.3236,0.6764	-1087.73
0.2768,0.7232	-1080.24
0.3764,0.6236	-1092.16
0.3745,0.6255	-1095.74
0.3885,0.6115	-1091.37
0.2243,0.7757	-1069.66
0.3487,0.6513	-1086.66
0.2496,0.7504	-1085.15
0.3260,0.6740	-1088.46
0.3710,0.6290	-1088.45
0.3834,0.6166	-1094.59
0.2145,0.7855	-1080.25
0.3164,0.6836	-1088.55
0.2894,0.7106	-1082.97
0.3296,0.6704	-1086.31
0.3049,0.6951	-1079.70
0.3498,0.6502	-1084.83
0.2208,0.7792	-1076.02
0.3260,0.6740	-1086.28
0.2762,0.7238	-1086.98
0.3316,0.6684	-1092.64
0.3186,0.6814	-1087.00
0.3325,0.6675	-1083.56
0.1869,0.8131	-1074.26
0.3570,0.6430	-1085.13
0.2638,0.7362	-1081.40
0.3068,0.6932	-1083.02
0.3075,0.6925	-1078.15
0.3276,0.6724	-1086.29
0.2213,0.7787	-1072.22
0.2790,0.7210	-1079.28
0.2730,0.7270	-1078.30
0.3248,0.6752	-1086.27
0.2788,0.7212	-1075.48
0.3080,0.6920	-1083.03
0.2275,0.7725	-1074.51
0.2612,0.7388	-1085.62
0.3178,0.6822	-1083.95
0.2405,0.7595	-1076.52
0.3119,0.6881	-1085.45
0.2758,0.7242	-1074.45
0.2876,0.7124	-1086.61
0.2649,0.7351	-1078.31
0.3136,0.6864	-1085.46
0.2766,0.7234	-1089.85
0.3460,0.6540	-1087.23
0.2929,0.7071	-1087.36
0.3011,0.6989	-1079.60
0.2942,0.7058	-1079.45
0.3308,0.6692	-1078.57
0.3175,0.6825	-1084.71
0.3097,0.6903	-1087.86
0.2885,0.7115	-1084.78
0.2897,0.7103	-1082.07
0.3086,0.6914	-1081.42
0.3015,0.6985	-1079.61
0.3046,0.6954	-1080.52
0.2736,0.7264	-1082.21
0.2584,0.7416	-1074.16
0.3053,0.6947	-1085.47
0.2894,0.7106	-1084.77
0.3138,0.6862	-1085.46
0.2676,0.7324	-1079.31
0.3259,0.6741	-1083.37
0.2773,0.7227	-1084.07
0.2673,0.7327	-1084.35
0.2638,0.7362	-1093.72
0.2558,0.7442	-1080.55
0.2387,0.7613	-1084.68
0.3332,0.6668	-1098.15
0.2933,0.7067	-1083.83
0.3106,0.6894	-1081.47
0.2558,0.7442	-1083.76
0.2433,0.7567	-1077.58
0.2217,0.7783	-1082.26
0.3517,0.6483	-1090.41
0.2864,0.7136	-1080.25
0.3174,0.6826	-1084.71
0.2553,0.7447	-1074.14
0.2135,0.7865	-1073.81
0.2096,0.7904	-1074.01
0.3975,0.6025	-1091.58
0.3090,0.6910	-1085.45
0.2804,0.7196	-1084.00
0.3078,0.6922	-1080.60
0.2220,0.7780	-1080.98
0.2154,0.7846	-1075.01
0.4212,0.5788	-1092.39
0.3413,0.6587	-1090.44
0.2631,0.7369	-1077.30
0.2754,0.7246	-1073.47
0.2140,0.7860	-1080.29
0.2623,0.7377	-1081.44
0.4291,0.5709	-1091.58
0.3125,0.6875	-1085.45
0.2466,0.7534	-1084.20
0.2840,0.7160	-1080.24
0.2414,0.7586	-1082.22
0.2551,0.7449	-1083.78
0.4022,0.5978	-1093.70
0.3468,0.6532	-1089.78
0.2618,0.7382	-1076.26
0.2932,0.7068	-1081.20
0.2496,0.7504	-1081.84
0.3084,0.6916	-1079.80
0.3296,0.6704	-1088.44
0.3448,0.6552	-1084.64
0.2839,0.7161	-1082.09
0.3143,0.6857	-1083.12
0.2598,0.7402	-1072.08
0.3488,0.6512	-1089.78
0.3638,0.6362	-1088.24
0.3337,0.6663	-1088.44
0.2910,0.7090	-1078.51
0.4155,0.5845	-1092.85
0.2534,0.7466	-1073.06
0.2890,0.7110	-1081.17
0.3453,0.6547	-1083.38
0.3581,0.6419	-1089.26
0.3254,0.6746	-1085.54
0.3718,0.6282	-1090.05
0.3101,0.6899	-1083.05
0.2683,0.7317	-1088.33
0.3508,0.6492	-1086.10
0.3280,0.6720	-1085.58
0.3072,0.6928	-1083.83
0.4052,0.5948	-1093.34
0.3311,0.6689	-1089.84
0.2191,0.7809	-1071.02
0.3278,0.6722	-1087.73
0.2595,0.7405	-1077.31
0.3019,0.6981	-1081.30
0.3795,0.6205	-1089.72
0.4127,0.5873	-1092.77
0.2771,0.7229	-1077.36
0.3656,0.6344	-1090.49
0.2473,0.7527	-1080.83
0.2486,0.7514	-1082.99
0.3951,0.6049	-1091.52
0.3698,0.6302	-1091.61
0.2967,0.7033	-1081.23
0.3760,0.6240	-1086.59
0.3110,0.6890	-1085.45
0.2656,0.7344	-1083.40
0.4448,0.5552	-1094.60
0.3488,0.6512	-1088.53
0.2837,0.7163	-1083.94
0.3125,0.6875	-1083.09
0.3345,0.6655	-1082.25
0.2810,0.7190	-1082.11
0.4580,0.5420	-1095.08
0.3071,0.6929	-1078.95
0.2811,0.7189	-1084.93
0.3049,0.6951	-1079.70
0.3552,0.6448	-1091.01
0.3287,0.6713	-1084.87
0.4130,0.5870	-1092.42
0.2800,0.7200	-1086.84
0.2546,0.7454	-1081.66
0.2946,0.7054	-1081.21
0.3416,0.6584	-1089.78
0.3066,0.6934	-1091.99
0.3708,0.6292	-1092.14
0.2765,0.7235	-1079.28
0.2959,0.7041	-1085.55
0.3067,0.6933	-1082.20
0.3507,0.6493	-1087.32
0.3149,0.6851	-1085.46
0.3755,0.6245	-1088.59
0.2681,0.7319	-1078.30
0.3125,0.6875	-1083.09
0.2907,0.7093	-1083.86
0.3186,0.6814	-1084.72
0.3494,0.6506	-1087.30
0.3889,0.6111	-1090.47
0.3016,0.6984	-1084.65
0.3132,0.6868	-1083.88
0.2757,0.7243	-1084.11
0.3177,0.6823	-1087.00
0.3263,0.6737	-1085.55
0.3603,0.6397	-1083.55
0.2821,0.7179	-1087.71
0.2982,0.7018	-1076.97
0.2800,0.7200	-1077.40
0.3295,0.6705	-1088.44
0.3676,0.6324	-1088.89
0.3322,0.6678	-1084.25
0.2847,0.7153	-1087.61
0.3641,0.6359	-1088.24
0.2950,0.7050	-1087.31
0.3426,0.6574	-1079.35
0.3028,0.6972	-1087.15
0.2989,0.7011	-1087.22
0.2859,0.7141	-1089.40
0.2708,0.7292	-1076.32
0.2727,0.7273	-1081.24
0.2974,0.7026	-1080.38
0.3176,0.6824	-1083.18
0.3312,0.6688	-1083.52
0.2788,0.7212	-1073.58
0.2975,0.7025	-1088.11
0.2982,0.7018	-1081.25
0.3035,0.6965	-1081.32
0.4076,0.5924	-1091.51
0.3198,0.6802	-1081.71
0.3085,0.6915	-1088.69
0.2963,0.7037	-1086.41
0.2845,0.7155	-1078.40
0.3295,0.6705	-1087.02
0.3989,0.6011	-1092.44
0.3238,0.6762	-1087.73
0.3230,0.6770	-1088.48
0.3138,0.6862	-1083.89
0.2866,0.7134	-1078.43
0.3428,0.6572	-1083.27
0.4380,0.5620	-1094.14
0.3807,0.6193	-1088.78
0.3349,0.6651	-1083.63
0.3132,0.6868	-1084.67
0.2999,0.7001	-1088.90
0.3752,0.6248	-1091.13
0.4089,0.5911	-1094.88
0.3774,0.6226	-1091.67
0.3332,0.6668	-1086.35
0.3071,0.6929	-1083.02
0.3027,0.6973	-1082.98
0.3841,0.6159	-1094.11
0.3817,0.6183	-1089.79
0.3558,0.6442	-1088.04
0.3637,0.6363	-1092.71
0.2839,0.7161	-1082.09
0.3336,0.6664	-1083.59
0.4085,0.5915	-1088.96
0.3520,0.6480	-1089.19
0.3395,0.6605	-1080.47
0.3075,0.6925	-1086.27
0.2929,0.7071	-1085.60
0.3310,0.6690	-1082.81
0.3383,0.6617	-1083.08
0.3087,0.6913	-1086.26
0.3135,0.6865	-1085.46
0.3572,0.6428	-1091.01
0.2735,0.7265	-1081.23
0.3413,0.6587	-1086.49
0.3501,0.6499	-1089.79
0.3380,0.6620	-1081.73
0.2666,0.7334	-1086.40
0.3318,0.6682	-1084.24
0.3098,0.6902	-1079.85
0.2960,0.7040	-1080.35
0.3157,0.6843	-1084.69
0.3299,0.6701	-1085.60
0.2805,0.7195	-1084.00
0.3370,0.6630	-1085.06
0.2980,0.7020	-1082.96
0.2633,0.7367	-1079.35
0.3101,0.6899	-1083.85
0.2703,0.7297	-1080.28
0.2571,0.7429	-1080.52
0.3533,0.6467	-1088.59
