#isoforms=['ENSG00000110080.SE.2.A.up_ENSG00000110080.SE.2.A.SE1_ENSG00000110080.SE.2.A.dn','ENSG00000110080.SE.2.B.up_ENSG00000110080.SE.2.B.dn']	exon_lens=('ENSG00000110080.SE.2.A.up',61),('ENSG00000110080.SE.2.A.SE1',96),('ENSG00000110080.SE.2.A.dn',190),('ENSG00000110080.SE.2.B.up',61),('ENSG00000110080.SE.2.B.dn',190)	iters=5000	burn_in=500	lag=10	percent_accept=95.19	proposal_type=drift	counts=(0,0):135,(1,0):177,(1,1):264	assigned_counts=0:439,1:2	chrom=chr11	strand=+	mRNA_starts=126407574,126407574	mRNA_ends=126408496,126408496
sampled_psi	log_score
0.9661,0.0339	-2541.39
0.9698,0.0302	-2534.01
0.9498,0.0502	-2576.42
0.9340,0.0660	-2576.58
0.8828,0.1172	-2617.53
0.9097,0.0903	-2599.67
0.9754,0.0246	-2533.12
0.9700,0.0300	-2544.40
0.9522,0.0478	-2576.53
0.9377,0.0623	-2579.14
0.8727,0.1273	-2612.13
0.9067,0.0933	-2581.56
0.9761,0.0239	-2533.02
0.9623,0.0377	-2551.63
0.9447,0.0553	-2573.48
0.9477,0.0523	-2570.56
0.8555,0.1445	-2631.58
0.9197,0.0803	-2589.89
0.9800,0.0200	-2544.23
0.9650,0.0350	-2544.85
0.9414,0.0586	-2565.23
0.9525,0.0475	-2567.55
0.8677,0.1323	-2618.19
0.9066,0.0934	-2602.03
0.9829,0.0171	-2568.75
0.9599,0.0401	-2558.16
0.9490,0.0510	-2553.00
0.9425,0.0575	-2573.53
0.8987,0.1013	-2611.02
0.9198,0.0802	-2589.89
0.9770,0.0230	-2532.90
0.9565,0.0435	-2539.76
0.9464,0.0536	-2561.98
0.9416,0.0584	-2581.89
0.8743,0.1257	-2629.46
0.9287,0.0713	-2566.64
0.9785,0.0215	-2532.72
0.9504,0.0496	-2549.87
0.9424,0.0576	-2579.12
0.9436,0.0564	-2584.77
0.8769,0.1231	-2625.57
0.9151,0.0849	-2573.45
0.9782,0.0218	-2532.76
0.9664,0.0336	-2568.22
0.9447,0.0553	-2581.99
0.9385,0.0615	-2551.88
0.8798,0.1202	-2615.62
0.9337,0.0663	-2587.18
0.9816,0.0184	-2536.38
0.9612,0.0388	-2545.29
0.9298,0.0702	-2592.34
0.9375,0.0625	-2568.31
0.8773,0.1227	-2629.50
0.9334,0.0666	-2566.05
0.9800,0.0200	-2552.00
0.9686,0.0314	-2544.51
0.9352,0.0648	-2555.17
0.9394,0.0606	-2573.64
0.8932,0.1068	-2596.22
0.9339,0.0661	-2555.41
0.9842,0.0158	-2519.83
0.9733,0.0267	-2555.01
0.9404,0.0596	-2573.60
0.9431,0.0569	-2556.67
0.9001,0.0999	-2597.83
0.9269,0.0731	-2584.67
0.9863,0.0137	-2527.89
0.9777,0.0223	-2536.59
0.9394,0.0606	-2581.86
0.9505,0.0495	-2552.81
0.8790,0.1210	-2601.77
0.9147,0.0853	-2597.24
0.9833,0.0167	-2540.43
0.9777,0.0223	-2532.81
0.9411,0.0589	-2587.43
0.9472,0.0528	-2564.80
0.8964,0.1036	-2611.04
0.9156,0.0844	-2580.54
0.9815,0.0185	-2528.44
0.9754,0.0246	-2536.80
0.9416,0.0584	-2551.31
0.9480,0.0520	-2567.65
0.9054,0.0946	-2593.02
0.9339,0.0661	-2581.89
0.9799,0.0201	-2528.68
0.9761,0.0239	-2544.15
0.9301,0.0699	-2605.29
0.9608,0.0392	-2561.34
0.8957,0.1043	-2593.84
0.9381,0.0619	-2576.41
0.9745,0.0255	-2547.82
0.9815,0.0185	-2544.32
0.9324,0.0676	-2566.18
0.9631,0.0369	-2584.20
0.9097,0.0903	-2604.29
0.9210,0.0790	-2582.49
0.9644,0.0356	-2564.71
0.9798,0.0202	-2528.69
0.9270,0.0730	-2566.87
0.9668,0.0332	-2544.67
0.9070,0.0930	-2604.29
0.9147,0.0853	-2587.75
0.9607,0.0393	-2545.35
0.9792,0.0208	-2544.19
0.9328,0.0672	-2597.69
0.9651,0.0349	-2564.75
0.9152,0.0848	-2575.81
0.9211,0.0789	-2599.68
0.9608,0.0392	-2570.93
0.9781,0.0219	-2532.77
0.9376,0.0624	-2565.59
0.9605,0.0395	-2570.91
0.9119,0.0881	-2604.30
0.9226,0.0774	-2574.94
0.9593,0.0407	-2548.70
0.9724,0.0276	-2547.82
0.9453,0.0547	-2593.42
0.9591,0.0409	-2551.87
0.9170,0.0830	-2590.00
0.9296,0.0704	-2594.91
0.9584,0.0416	-2564.49
0.9681,0.0319	-2547.96
0.9591,0.0409	-2567.65
0.9618,0.0382	-2548.44
0.9258,0.0742	-2597.33
0.9190,0.0810	-2594.78
0.9673,0.0327	-2551.40
0.9737,0.0263	-2544.21
0.9637,0.0363	-2538.44
0.9616,0.0384	-2561.34
0.9307,0.0693	-2581.97
0.9234,0.0766	-2582.32
0.9612,0.0388	-2548.50
0.9704,0.0296	-2551.36
0.9602,0.0398	-2554.97
0.9547,0.0453	-2561.45
0.9276,0.0724	-2576.99
0.9311,0.0689	-2589.77
0.9617,0.0383	-2561.34
0.9719,0.0281	-2526.57
0.9713,0.0287	-2547.84
0.9623,0.0377	-2571.07
0.9235,0.0765	-2584.81
0.9400,0.0600	-2565.36
0.9606,0.0394	-2545.37
0.9764,0.0236	-2566.48
0.9715,0.0285	-2537.25
0.9594,0.0406	-2558.18
0.9147,0.0853	-2594.86
0.9377,0.0623	-2576.43
0.9545,0.0455	-2564.50
0.9776,0.0224	-2544.15
0.9705,0.0295	-2551.36
0.9661,0.0339	-2548.08
0.9141,0.0859	-2609.07
0.9541,0.0459	-2558.44
0.9581,0.0419	-2564.48
0.9818,0.0182	-2520.43
0.9718,0.0282	-2554.91
0.9665,0.0335	-2554.78
0.9262,0.0738	-2572.04
0.9446,0.0554	-2550.79
0.9685,0.0315	-2554.80
0.9734,0.0266	-2537.01
0.9750,0.0250	-2544.17
0.9619,0.0381	-2558.12
0.9257,0.0743	-2594.80
0.9404,0.0596	-2590.14
0.9658,0.0342	-2544.76
0.9705,0.0295	-2537.39
0.9798,0.0202	-2540.34
0.9615,0.0385	-2567.78
0.9207,0.0793	-2589.86
0.9341,0.0659	-2579.23
0.9710,0.0290	-2544.34
0.9708,0.0292	-2547.85
0.9800,0.0200	-2532.55
0.9638,0.0362	-2548.26
0.9361,0.0639	-2581.86
0.9277,0.0723	-2584.64
0.9752,0.0248	-2525.81
0.9705,0.0295	-2547.86
0.9792,0.0208	-2528.78
0.9558,0.0442	-2570.63
0.9293,0.0707	-2584.60
0.9407,0.0593	-2562.52
0.9750,0.0250	-2562.49
0.9712,0.0288	-2537.29
0.9792,0.0208	-2540.34
0.9534,0.0466	-2582.64
0.9336,0.0664	-2573.96
0.9439,0.0561	-2570.67
0.9740,0.0260	-2533.32
0.9672,0.0328	-2571.71
0.9773,0.0227	-2544.15
0.9585,0.0415	-2561.35
0.9260,0.0740	-2569.54
0.9465,0.0535	-2573.46
0.9765,0.0235	-2532.96
0.9695,0.0305	-2540.98
0.9831,0.0169	-2536.35
0.9630,0.0370	-2554.85
0.9340,0.0660	-2592.48
0.9535,0.0465	-2555.46
0.9783,0.0217	-2536.55
0.9645,0.0355	-2544.90
0.9813,0.0187	-2532.43
0.9649,0.0351	-2534.91
0.9388,0.0612	-2603.70
0.9575,0.0425	-2552.02
0.9786,0.0214	-2532.71
0.9703,0.0297	-2554.84
0.9776,0.0224	-2544.15
0.9691,0.0309	-2551.36
0.9418,0.0582	-2559.63
0.9594,0.0406	-2548.69
0.9739,0.0261	-2547.82
0.9680,0.0320	-2558.20
0.9763,0.0237	-2551.58
0.9624,0.0376	-2561.35
0.9556,0.0444	-2552.21
0.9691,0.0309	-2537.58
0.9783,0.0217	-2532.74
0.9666,0.0334	-2558.15
0.9785,0.0215	-2525.08
0.9679,0.0321	-2537.76
0.9517,0.0483	-2561.60
0.9688,0.0312	-2534.18
0.9789,0.0211	-2528.84
0.9710,0.0290	-2554.87
0.9808,0.0192	-2528.54
0.9676,0.0324	-2541.20
0.9550,0.0450	-2561.44
0.9676,0.0324	-2541.20
0.9785,0.0215	-2555.63
0.9696,0.0304	-2554.82
0.9785,0.0215	-2547.99
0.9631,0.0369	-2551.58
0.9481,0.0519	-2558.93
0.9732,0.0268	-2533.45
0.9778,0.0222	-2521.43
0.9744,0.0256	-2555.10
0.9706,0.0294	-2544.36
0.9634,0.0366	-2561.38
0.9642,0.0358	-2544.94
0.9761,0.0239	-2544.15
0.9754,0.0246	-2525.77
0.9810,0.0190	-2536.40
0.9712,0.0288	-2558.40
0.9610,0.0390	-2558.13
0.9613,0.0387	-2548.49
0.9795,0.0205	-2536.47
0.9754,0.0246	-2533.12
0.9760,0.0240	-2536.74
0.9759,0.0241	-2547.85
0.9569,0.0431	-2570.68
0.9640,0.0360	-2574.55
0.9777,0.0223	-2532.81
0.9696,0.0304	-2540.97
0.9768,0.0232	-2544.15
0.9769,0.0231	-2525.42
0.9588,0.0412	-2558.20
0.9595,0.0405	-2567.67
0.9805,0.0195	-2536.42
0.9694,0.0306	-2551.36
0.9820,0.0180	-2532.37
0.9686,0.0314	-2551.37
0.9613,0.0387	-2551.70
0.9609,0.0391	-2558.13
0.9765,0.0235	-2547.88
0.9669,0.0331	-2568.28
0.9837,0.0163	-2544.55
0.9723,0.0277	-2537.14
0.9640,0.0360	-2571.25
0.9467,0.0533	-2564.83
0.9771,0.0229	-2540.40
0.9664,0.0336	-2564.86
0.9827,0.0173	-2536.36
0.9674,0.0326	-2548.00
0.9632,0.0368	-2554.84
0.9479,0.0521	-2558.95
0.9801,0.0199	-2536.44
0.9665,0.0335	-2544.69
0.9819,0.0181	-2532.38
0.9650,0.0350	-2561.43
0.9633,0.0367	-2554.84
0.9448,0.0552	-2579.16
0.9792,0.0208	-2532.64
0.9742,0.0258	-2555.08
0.9832,0.0168	-2532.28
0.9618,0.0382	-2545.21
0.9657,0.0343	-2541.44
0.9513,0.0487	-2564.59
0.9800,0.0200	-2536.44
0.9658,0.0342	-2558.13
0.9853,0.0147	-2532.19
0.9465,0.0535	-2593.57
0.9645,0.0355	-2538.29
0.9401,0.0599	-2568.10
0.9841,0.0159	-2523.98
0.9668,0.0332	-2558.15
0.9809,0.0191	-2540.34
0.9578,0.0422	-2567.60
0.9644,0.0356	-2571.30
0.9428,0.0572	-2551.11
0.9835,0.0165	-2532.26
0.9632,0.0368	-2554.84
0.9850,0.0150	-2523.82
0.9565,0.0435	-2558.30
0.9662,0.0338	-2544.72
0.9460,0.0540	-2562.01
0.9866,0.0134	-2532.17
0.9573,0.0427	-2552.04
0.9834,0.0166	-2540.43
0.9556,0.0444	-2570.63
0.9655,0.0345	-2564.79
0.9491,0.0509	-2561.76
0.9839,0.0161	-2519.90
0.9627,0.0373	-2558.11
0.9827,0.0173	-2520.19
0.9487,0.0513	-2567.63
0.9702,0.0298	-2533.95
0.9467,0.0533	-2561.95
0.9865,0.0135	-2519.29
0.9645,0.0355	-2571.32
0.9823,0.0177	-2536.36
0.9352,0.0648	-2581.86
0.9693,0.0307	-2544.45
0.9533,0.0467	-2564.53
0.9810,0.0190	-2540.34
0.9703,0.0297	-2551.36
0.9773,0.0227	-2540.39
0.9246,0.0754	-2589.77
0.9698,0.0302	-2551.36
0.9544,0.0456	-2552.34
0.9799,0.0201	-2532.56
0.9742,0.0258	-2526.03
0.9724,0.0276	-2572.74
0.9290,0.0710	-2576.89
0.9715,0.0285	-2561.96
0.9562,0.0438	-2549.06
0.9828,0.0172	-2528.26
0.9725,0.0275	-2547.82
0.9654,0.0346	-2568.11
0.9155,0.0845	-2578.16
0.9706,0.0294	-2537.36
0.9347,0.0653	-2584.53
0.9838,0.0162	-2544.57
0.9717,0.0283	-2554.91
0.9603,0.0397	-2558.15
0.9269,0.0731	-2589.75
0.9719,0.0281	-2540.75
0.9404,0.0596	-2568.08
0.9835,0.0165	-2536.35
0.9636,0.0364	-2554.83
0.9706,0.0294	-2540.87
0.9221,0.0779	-2570.05
0.9687,0.0313	-2551.37
0.9296,0.0704	-2602.65
0.9816,0.0184	-2540.36
0.9728,0.0272	-2547.82
0.9734,0.0266	-2544.21
0.9072,0.0928	-2592.90
0.9724,0.0276	-2540.70
0.9433,0.0567	-2573.51
0.9811,0.0189	-2532.45
0.9749,0.0251	-2540.51
0.9736,0.0264	-2540.60
0.8964,0.1036	-2600.25
0.9598,0.0402	-2567.68
0.9468,0.0532	-2573.46
0.9841,0.0159	-2540.48
0.9784,0.0216	-2544.17
0.9753,0.0247	-2529.46
0.9104,0.0896	-2606.61
0.9608,0.0392	-2538.94
0.9422,0.0578	-2581.91
0.9839,0.0161	-2524.02
0.9789,0.0211	-2532.67
0.9719,0.0281	-2533.66
0.9247,0.0753	-2569.71
0.9637,0.0363	-2541.72
0.9474,0.0526	-2564.79
0.9850,0.0150	-2523.83
0.9821,0.0179	-2528.36
0.9717,0.0283	-2537.23
0.9271,0.0729	-2592.29
0.9722,0.0278	-2558.49
0.9560,0.0440	-2561.41
0.9822,0.0178	-2544.39
0.9827,0.0173	-2528.27
0.9748,0.0252	-2540.52
0.9231,0.0769	-2604.71
0.9775,0.0225	-2532.84
0.9461,0.0539	-2573.46
0.9813,0.0187	-2544.31
0.9812,0.0188	-2548.25
0.9720,0.0280	-2551.38
0.9267,0.0733	-2569.45
0.9780,0.0220	-2540.36
0.9545,0.0455	-2543.21
0.9830,0.0170	-2528.23
0.9833,0.0167	-2528.20
0.9739,0.0261	-2558.67
0.9278,0.0722	-2576.98
0.9790,0.0210	-2544.19
0.9526,0.0474	-2546.55
0.9853,0.0147	-2536.39
0.9821,0.0179	-2536.37
0.9644,0.0356	-2551.51
0.9307,0.0693	-2579.37
0.9788,0.0212	-2540.35
0.9457,0.0543	-2573.47
0.9873,0.0127	-2523.47
0.9863,0.0137	-2527.89
0.9704,0.0296	-2547.87
0.9255,0.0745	-2577.16
0.9762,0.0238	-2521.85
0.9417,0.0583	-2570.77
0.9865,0.0135	-2532.17
0.9852,0.0148	-2519.60
0.9693,0.0307	-2544.45
0.9465,0.0535	-2561.97
0.9780,0.0220	-2544.16
0.9393,0.0607	-2565.42
0.9800,0.0200	-2536.45
0.9844,0.0156	-2528.08
0.9685,0.0315	-2571.92
0.9429,0.0571	-2570.71
0.9753,0.0247	-2547.84
0.9434,0.0566	-2584.76
0.9857,0.0143	-2527.94
0.9850,0.0150	-2528.01
0.9764,0.0236	-2555.31
0.9482,0.0518	-2561.84
0.9770,0.0230	-2544.15
0.9424,0.0576	-2570.74
0.9866,0.0134	-2523.57
0.9861,0.0139	-2532.17
0.9778,0.0222	-2529.02
0.9475,0.0525	-2573.46
0.9783,0.0217	-2528.93
0.9529,0.0471	-2558.53
0.9850,0.0150	-2532.20
0.9867,0.0133	-2536.47
0.9768,0.0232	-2551.63
0.9435,0.0565	-2567.87
0.9791,0.0209	-2532.65
0.9636,0.0364	-2554.83
0.9819,0.0181	-2548.35
0.9879,0.0121	-2527.78
0.9740,0.0260	-2544.20
0.9385,0.0615	-2576.40
0.9825,0.0175	-2528.31
0.9565,0.0435	-2555.21
0.9808,0.0192	-2532.47
0.9860,0.0140	-2527.92
0.9689,0.0311	-2547.92
0.9517,0.0483	-2576.50
0.9775,0.0225	-2529.06
0.9515,0.0485	-2561.61
0.9763,0.0237	-2551.59
0.9831,0.0169	-2536.35
0.9717,0.0283	-2558.44
0.9612,0.0388	-2551.71
0.9808,0.0192	-2536.41
0.9471,0.0529	-2556.15
0.9813,0.0187	-2532.43
0.9858,0.0142	-2536.42
0.9715,0.0285	-2540.78
0.9619,0.0381	-2541.98
0.9815,0.0185	-2540.35
0.9469,0.0531	-2556.18
0.9850,0.0150	-2544.76
0.9864,0.0136	-2527.88
0.9591,0.0409	-2539.26
0.9613,0.0387	-2558.13
0.9814,0.0186	-2532.42
0.9507,0.0493	-2567.58
0.9871,0.0129	-2549.53
0.9881,0.0119	-2532.19
0.9654,0.0346	-2551.46
0.9662,0.0338	-2538.02
0.9823,0.0177	-2532.34
0.9474,0.0526	-2556.11
0.9854,0.0146	-2527.97
0.9878,0.0122	-2536.58
0.9648,0.0352	-2538.25
0.9629,0.0371	-2558.11
0.9791,0.0209	-2540.34
0.9506,0.0494	-2564.62
0.9836,0.0164	-2528.16
0.9852,0.0148	-2536.39
0.9605,0.0395	-2554.95
0.9684,0.0316	-2544.53
0.9776,0.0224	-2540.38
0.9534,0.0466	-2558.49
0.9815,0.0185	-2524.47
0.9862,0.0138	-2536.44
0.9628,0.0372	-2548.35
0.9634,0.0366	-2558.11
0.9867,0.0133	-2536.48
0.9581,0.0419	-2561.36
0.9812,0.0188	-2548.25
0.9886,0.0114	-2523.29
0.9600,0.0400	-2574.05
0.9649,0.0351	-2564.74
0.9850,0.0150	-2532.20
0.9642,0.0358	-2541.64
0.9806,0.0194	-2540.34
0.9894,0.0106	-2527.73
0.9627,0.0373	-2564.61
0.9662,0.0338	-2554.78
0.9828,0.0172	-2532.31
0.9662,0.0338	-2568.20
0.9808,0.0192	-2544.28
0.9908,0.0092	-2527.74
0.9635,0.0365	-2561.38
0.9678,0.0322	-2534.36
0.9838,0.0162	-2519.94
0.9773,0.0227	-2536.63
0.9791,0.0209	-2536.49
0.9923,0.0077	-2518.10
0.9615,0.0385	-2558.12
0.9613,0.0387	-2551.70
0.9865,0.0135	-2527.87
0.9712,0.0288	-2544.32
0.9818,0.0182	-2536.37
0.9941,0.0059	-2517.83
0.9529,0.0471	-2564.54
0.9656,0.0344	-2551.45
0.9836,0.0164	-2528.17
0.9712,0.0288	-2558.40
0.9852,0.0148	-2532.19
0.9924,0.0076	-2513.21
0.9365,0.0635	-2576.47
0.9668,0.0332	-2541.29
0.9793,0.0207	-2540.34
0.9734,0.0266	-2547.82
0.9867,0.0133	-2527.86
0.9907,0.0093	-2513.73
0.9113,0.0887	-2606.63
0.9678,0.0322	-2537.78
0.9762,0.0238	-2544.15
0.9664,0.0336	-2558.14
0.9872,0.0128	-2514.78
0.9904,0.0096	-2536.99
0.9218,0.0782	-2592.30
0.9632,0.0368	-2551.58
0.9799,0.0201	-2532.57
0.9668,0.0332	-2541.30
0.9872,0.0128	-2519.13
0.9903,0.0097	-2523.10
0.9195,0.0805	-2611.82
0.9651,0.0349	-2561.44
0.9793,0.0207	-2532.62
0.9722,0.0278	-2558.49
0.9869,0.0131	-2527.85
0.9901,0.0099	-2518.52
0.8986,0.1014	-2595.75
0.9639,0.0361	-2564.67
0.9752,0.0248	-2544.16
0.9747,0.0253	-2558.78
0.9862,0.0138	-2536.44
0.9928,0.0072	-2522.95
0.9101,0.0899	-2608.92
0.9682,0.0318	-2561.62
0.9770,0.0230	-2540.40
0.9726,0.0274	-2540.68
0.9886,0.0114	-2518.83
0.9917,0.0083	-2513.41
0.8990,0.1010	-2613.21
0.9721,0.0279	-2526.52
0.9748,0.0252	-2562.46
0.9783,0.0217	-2540.36
0.9893,0.0107	-2518.67
0.9942,0.0058	-2522.96
0.8951,0.1049	-2611.06
0.9686,0.0314	-2554.80
0.9663,0.0337	-2554.78
0.9814,0.0186	-2524.48
0.9898,0.0102	-2532.30
0.9934,0.0066	-2517.92
0.8575,0.1425	-2618.96
0.9638,0.0362	-2551.54
0.9635,0.0365	-2548.28
0.9809,0.0191	-2544.28
0.9902,0.0098	-2513.88
0.9936,0.0064	-2527.99
0.8880,0.1120	-2629.87
0.9625,0.0375	-2564.60
0.9644,0.0356	-2551.51
0.9787,0.0213	-2548.00
0.9899,0.0101	-2518.56
0.9929,0.0071	-2518.00
0.8617,0.1383	-2633.25
0.9709,0.0291	-2551.36
0.9676,0.0324	-2534.40
0.9773,0.0227	-2544.15
0.9861,0.0139	-2536.43
0.9947,0.0053	-2517.76
0.8655,0.1345	-2599.72
0.9696,0.0304	-2551.36
0.9718,0.0282	-2540.75
0.9792,0.0208	-2540.34
0.9869,0.0131	-2514.88
0.9955,0.0045	-2512.29
0.8702,0.1298	-2631.36
0.9609,0.0391	-2542.13
0.9719,0.0281	-2533.66
0.9799,0.0201	-2555.87
0.9894,0.0106	-2518.66
0.9957,0.0043	-2528.56
0.8760,0.1240	-2609.93
0.9581,0.0419	-2570.75
0.9711,0.0289	-2558.39
0.9790,0.0210	-2559.55
0.9873,0.0127	-2519.10
0.9961,0.0039	-2517.65
0.8825,0.1175	-2631.65
0.9501,0.0499	-2549.91
0.9662,0.0338	-2561.49
0.9810,0.0190	-2532.45
0.9877,0.0123	-2532.18
0.9969,0.0031	-2517.64
0.8976,0.1024	-2582.80
0.9444,0.0556	-2579.15
0.9669,0.0331	-2554.78
0.9846,0.0154	-2532.21
0.9865,0.0135	-2532.17
0.9968,0.0032	-2529.14
0.8894,0.1106	-2586.18
0.9341,0.0659	-2579.23
0.9715,0.0285	-2544.31
0.9819,0.0181	-2536.37
0.9878,0.0122	-2527.79
0.9966,0.0034	-2511.94
0.8993,0.1007	-2604.46
0.9409,0.0591	-2576.34
0.9650,0.0350	-2544.85
0.9842,0.0158	-2519.84
0.9884,0.0116	-2527.76
0.9963,0.0037	-2517.64
0.9009,0.0991	-2604.40
0.9495,0.0505	-2570.54
0.9647,0.0353	-2554.80
0.9809,0.0191	-2528.53
0.9875,0.0125	-2532.18
0.9966,0.0034	-2517.63
0.9039,0.0961	-2588.65
0.9588,0.0412	-2545.60
0.9682,0.0318	-2561.63
0.9848,0.0152	-2532.20
0.9865,0.0135	-2523.58
0.9960,0.0040	-2517.65
0.8952,0.1048	-2596.04
0.9664,0.0336	-2548.07
0.9720,0.0280	-2540.74
0.9809,0.0191	-2536.40
0.9873,0.0127	-2527.82
0.9957,0.0043	-2512.22
0.9077,0.0923	-2597.43
0.9602,0.0398	-2535.87
0.9714,0.0286	-2540.79
0.9811,0.0189	-2560.08
0.9827,0.0173	-2528.28
0.9962,0.0038	-2517.64
0.9223,0.0777	-2582.39
0.9561,0.0439	-2558.32
0.9723,0.0277	-2533.59
0.9806,0.0194	-2528.56
0.9849,0.0151	-2523.85
0.9966,0.0034	-2511.95
0.9229,0.0771	-2584.84
0.9398,0.0602	-2590.11
0.9759,0.0241	-2536.75
0.9838,0.0162	-2536.36
0.9813,0.0187	-2536.39
0.9971,0.0029	-2517.64
0.9385,0.0615	-2579.13
0.9381,0.0619	-2576.41
0.9700,0.0300	-2554.83
0.9869,0.0131	-2523.52
0.9818,0.0182	-2532.38
0.9967,0.0033	-2517.63
0.9305,0.0695	-2589.76
0.9499,0.0501	-2579.37
0.9687,0.0313	-2547.93
0.9888,0.0112	-2514.30
0.9815,0.0185	-2528.44
0.9971,0.0029	-2511.81
0.9263,0.0737	-2587.22
0.9581,0.0419	-2573.88
0.9682,0.0318	-2547.96
0.9891,0.0109	-2518.71
0.9813,0.0187	-2528.47
0.9973,0.0027	-2517.66
0.9389,0.0611	-2584.59
0.9608,0.0392	-2558.14
0.9739,0.0261	-2555.05
0.9906,0.0094	-2523.08
0.9762,0.0238	-2547.86
0.9970,0.0030	-2511.84
0.9475,0.0525	-2558.99
0.9532,0.0468	-2588.64
0.9729,0.0271	-2533.50
0.9915,0.0085	-2513.49
0.9786,0.0214	-2525.07
0.9968,0.0032	-2511.88
0.9524,0.0476	-2558.56
0.9387,0.0613	-2557.30
0.9702,0.0298	-2568.77
0.9916,0.0084	-2523.00
0.9801,0.0199	-2548.13
0.9967,0.0033	-2511.93
0.9562,0.0438	-2564.48
0.9299,0.0701	-2571.65
0.9686,0.0314	-2541.08
0.9903,0.0097	-2546.25
0.9793,0.0207	-2540.34
0.9971,0.0029	-2517.64
0.9546,0.0454	-2558.41
0.9448,0.0552	-2562.12
0.9633,0.0367	-2538.50
0.9893,0.0107	-2536.78
0.9767,0.0233	-2540.41
0.9968,0.0032	-2511.89
0.9626,0.0374	-2551.61
0.9555,0.0445	-2570.62
0.9587,0.0413	-2564.49
0.9844,0.0156	-2528.07
0.9673,0.0327	-2561.55
0.9966,0.0034	-2517.63
0.9662,0.0338	-2561.49
0.9590,0.0410	-2545.58
0.9585,0.0415	-2551.93
0.9817,0.0183	-2520.44
0.9687,0.0313	-2568.53
0.9957,0.0043	-2512.21
0.9672,0.0328	-2548.01
0.9665,0.0335	-2554.78
0.9605,0.0395	-2561.34
0.9779,0.0221	-2544.16
0.9598,0.0402	-2545.47
0.9956,0.0044	-2517.68
0.9571,0.0429	-2558.27
0.9720,0.0280	-2558.47
0.9584,0.0416	-2561.35
0.9783,0.0217	-2555.59
0.9497,0.0503	-2558.79
0.9948,0.0052	-2517.74
0.9589,0.0411	-2567.64
0.9765,0.0235	-2544.15
0.9600,0.0400	-2561.34
0.9778,0.0222	-2547.94
0.9533,0.0467	-2546.43
0.9943,0.0057	-2522.97
0.9571,0.0429	-2564.48
0.9760,0.0240	-2529.33
0.9602,0.0398	-2558.15
0.9758,0.0242	-2529.37
0.9399,0.0601	-2557.12
0.9940,0.0060	-2528.07
0.9692,0.0308	-2554.81
0.9774,0.0226	-2540.39
0.9538,0.0462	-2549.38
0.9768,0.0232	-2532.93
0.9517,0.0483	-2567.56
0.9927,0.0073	-2518.04
0.9698,0.0302	-2544.42
0.9741,0.0259	-2544.19
0.9518,0.0482	-2564.58
0.9737,0.0263	-2536.98
0.9531,0.0469	-2555.50
0.9925,0.0075	-2527.84
0.9661,0.0339	-2548.09
0.9769,0.0231	-2536.66
0.9538,0.0462	-2552.41
0.9762,0.0238	-2525.58
0.9579,0.0421	-2564.48
0.9943,0.0057	-2533.29
0.9690,0.0310	-2554.81
0.9731,0.0269	-2533.46
0.9560,0.0440	-2564.48
0.9746,0.0254	-2558.77
0.9631,0.0369	-2561.37
0.9953,0.0047	-2517.69
0.9635,0.0365	-2541.73
0.9690,0.0310	-2547.92
0.9626,0.0374	-2561.36
0.9804,0.0196	-2528.60
0.9541,0.0459	-2561.48
0.9951,0.0049	-2517.71
0.9690,0.0310	-2568.58
0.9672,0.0328	-2554.78
0.9525,0.0475	-2564.55
0.9788,0.0212	-2536.51
0.9371,0.0629	-2568.35
0.9956,0.0044	-2517.67
0.9682,0.0318	-2534.30
0.9650,0.0350	-2548.16
0.9634,0.0366	-2554.84
0.9759,0.0241	-2540.45
0.9386,0.0614	-2598.21
0.9946,0.0054	-2528.19
0.9685,0.0315	-2568.50
0.9634,0.0366	-2541.75
0.9515,0.0485	-2564.58
0.9757,0.0243	-2544.16
0.9241,0.0759	-2579.78
0.9940,0.0060	-2517.84
0.9744,0.0256	-2547.82
0.9618,0.0382	-2554.89
0.9423,0.0577	-2548.40
0.9794,0.0206	-2532.62
0.9228,0.0772	-2592.29
0.9954,0.0046	-2512.31
0.9755,0.0245	-2540.47
0.9632,0.0368	-2561.37
0.9343,0.0657	-2592.50
0.9794,0.0206	-2528.75
0.9372,0.0628	-2562.93
0.9951,0.0049	-2523.03
0.9764,0.0236	-2555.32
0.9688,0.0312	-2534.18
0.9120,0.0880	-2594.95
0.9751,0.0249	-2558.84
0.9484,0.0516	-2582.20
0.9945,0.0055	-2517.78
0.9706,0.0294	-2554.85
0.9687,0.0313	-2554.80
0.9150,0.0850	-2592.48
0.9720,0.0280	-2544.28
0.9455,0.0545	-2559.20
0.9941,0.0059	-2528.09
0.9702,0.0298	-2554.84
0.9642,0.0358	-2554.81
0.9212,0.0788	-2584.93
0.9650,0.0350	-2548.16
0.9536,0.0464	-2567.55
0.9932,0.0068	-2522.94
0.9715,0.0285	-2558.43
0.9607,0.0393	-2567.73
0.9349,0.0651	-2595.19
0.9672,0.0328	-2544.63
0.9559,0.0441	-2570.64
0.9941,0.0059	-2528.08
0.9693,0.0307	-2537.55
0.9673,0.0327	-2537.85
0.9349,0.0651	-2581.87
0.9778,0.0222	-2536.58
0.9548,0.0452	-2564.50
0.9951,0.0049	-2523.03
0.9671,0.0329	-2571.69
0.9636,0.0364	-2554.83
0.9187,0.0813	-2585.08
0.9800,0.0200	-2540.34
0.9555,0.0445	-2552.23
0.9960,0.0040	-2512.12
0.9619,0.0381	-2535.53
0.9679,0.0321	-2544.57
0.9264,0.0736	-2584.69
0.9789,0.0211	-2544.18
0.9555,0.0445	-2561.42
0.9957,0.0043	-2523.11
0.9657,0.0343	-2544.78
0.9692,0.0308	-2547.91
0.9285,0.0715	-2597.44
0.9749,0.0251	-2544.17
0.9640,0.0360	-2551.53
0.9960,0.0040	-2517.65
0.9642,0.0358	-2554.81
0.9611,0.0389	-2558.13
0.9437,0.0563	-2581.95
0.9741,0.0259	-2551.45
0.9622,0.0378	-2545.17
0.9960,0.0040	-2523.16
0.9639,0.0361	-2561.39
0.9660,0.0340	-2548.09
0.9384,0.0616	-2562.79
0.9784,0.0216	-2536.54
0.9657,0.0343	-2548.11
0.9960,0.0040	-2512.14
0.9564,0.0436	-2561.39
0.9621,0.0379	-2567.82
0.9445,0.0555	-2576.32
0.9791,0.0209	-2540.34
0.9618,0.0382	-2561.34
0.9964,0.0036	-2517.64
0.9545,0.0455	-2546.24
0.9689,0.0311	-2561.68
0.9569,0.0431	-2564.48
0.9745,0.0255	-2540.54
0.9659,0.0341	-2544.75
0.9960,0.0040	-2512.14
0.9497,0.0503	-2576.41
0.9609,0.0391	-2548.53
0.9670,0.0330	-2548.03
0.9767,0.0233	-2551.62
0.9747,0.0253	-2536.87
0.9955,0.0045	-2517.68
0.9513,0.0487	-2555.68
0.9600,0.0400	-2545.45
0.9684,0.0316	-2547.95
0.9803,0.0197	-2552.06
0.9781,0.0219	-2559.35
0.9963,0.0037	-2517.64
0.9496,0.0504	-2567.60
0.9517,0.0483	-2555.63
0.9679,0.0321	-2537.75
0.9785,0.0215	-2540.35
0.9819,0.0181	-2536.37
0.9963,0.0037	-2523.24
0.9408,0.0592	-2570.81
0.9533,0.0467	-2552.47
0.9644,0.0356	-2531.73
0.9806,0.0194	-2548.19
0.9803,0.0197	-2540.34
0.9938,0.0062	-2522.95
0.9360,0.0640	-2581.86
0.9538,0.0462	-2555.44
0.9694,0.0306	-2547.90
0.9837,0.0163	-2540.45
0.9802,0.0198	-2540.34
0.9922,0.0078	-2518.12
0.9271,0.0729	-2587.20
0.9564,0.0436	-2583.01
0.9671,0.0329	-2541.26
0.9851,0.0149	-2528.00
0.9806,0.0194	-2552.10
0.9908,0.0092	-2537.10
0.9267,0.0733	-2582.14
0.9535,0.0465	-2552.45
0.9678,0.0322	-2565.00
0.9873,0.0127	-2545.24
0.9798,0.0202	-2528.69
0.9886,0.0114	-2541.15
0.8890,0.1110	-2596.64
0.9589,0.0411	-2548.75
0.9723,0.0277	-2544.26
0.9859,0.0141	-2527.92
0.9823,0.0177	-2552.43
0.9891,0.0109	-2523.23
0.8792,0.1208	-2615.65
0.9598,0.0402	-2564.51
0.9750,0.0250	-2547.83
0.9867,0.0133	-2523.55
0.9835,0.0165	-2536.35
0.9906,0.0094	-2532.39
0.8916,0.1084	-2587.95
0.9537,0.0463	-2558.47
0.9789,0.0211	-2532.67
0.9863,0.0137	-2527.89
0.9823,0.0177	-2528.33
0.9900,0.0100	-2523.13
0.9222,0.0778	-2592.29
0.9582,0.0418	-2548.82
0.9808,0.0192	-2536.41
0.9861,0.0139	-2532.17
0.9836,0.0164	-2528.17
0.9885,0.0115	-2527.75
0.9175,0.0825	-2594.80
0.9547,0.0453	-2549.26
0.9826,0.0174	-2520.23
0.9857,0.0143	-2536.41
0.9822,0.0178	-2536.37
0.9889,0.0111	-2518.76
0.9294,0.0706	-2605.22
0.9532,0.0468	-2549.47
0.9780,0.0220	-2536.57
0.9890,0.0110	-2532.24
0.9825,0.0175	-2516.21
0.9899,0.0101	-2518.56
0.9246,0.0754	-2572.23
0.9475,0.0525	-2576.35
0.9756,0.0244	-2522.03
0.9895,0.0105	-2523.19
0.9792,0.0208	-2521.07
0.9920,0.0080	-2522.98
0.9160,0.0840	-2585.27
0.9462,0.0538	-2547.66
0.9716,0.0284	-2551.37
0.9869,0.0131	-2532.17
0.9796,0.0204	-2544.21
0.9887,0.0113	-2518.80
0.9223,0.0777	-2579.92
0.9534,0.0466	-2558.49
0.9740,0.0260	-2555.06
0.9851,0.0149	-2536.38
0.9766,0.0234	-2536.69
0.9902,0.0098	-2532.34
0.9178,0.0822	-2582.73
0.9589,0.0411	-2551.89
0.9787,0.0213	-2532.69
0.9893,0.0107	-2532.26
0.9825,0.0175	-2520.24
0.9885,0.0115	-2527.76
0.9362,0.0638	-2554.99
0.9524,0.0476	-2576.54
0.9784,0.0216	-2532.72
0.9912,0.0088	-2527.75
0.9807,0.0193	-2540.34
0.9874,0.0126	-2532.17
0.9272,0.0728	-2574.48
0.9394,0.0606	-2570.89
0.9722,0.0278	-2544.27
0.9905,0.0095	-2518.44
0.9850,0.0150	-2528.02
0.9885,0.0115	-2523.30
0.9292,0.0708	-2592.32
0.9385,0.0615	-2560.05
0.9615,0.0385	-2558.12
0.9895,0.0105	-2536.82
0.9848,0.0152	-2532.20
0.9853,0.0147	-2532.19
0.9098,0.0902	-2597.36
0.9420,0.0580	-2587.48
0.9509,0.0491	-2573.50
0.9865,0.0135	-2523.59
0.9816,0.0184	-2524.44
0.9885,0.0115	-2536.67
0.9158,0.0842	-2592.45
0.9425,0.0575	-2567.94
0.9463,0.0537	-2561.99
0.9879,0.0121	-2527.78
0.9806,0.0194	-2532.49
0.9878,0.0122	-2519.00
0.9264,0.0736	-2592.28
0.9281,0.0719	-2579.51
0.9387,0.0613	-2576.40
0.9872,0.0128	-2519.13
0.9764,0.0236	-2544.15
0.9892,0.0108	-2518.71
0.9407,0.0593	-2581.88
0.9181,0.0819	-2602.04
0.9329,0.0671	-2571.38
0.9878,0.0122	-2545.36
0.9764,0.0236	-2547.87
0.9903,0.0097	-2527.73
0.9418,0.0582	-2598.60
0.9305,0.0695	-2587.17
0.9281,0.0719	-2566.73
0.9888,0.0112	-2527.75
0.9746,0.0254	-2551.47
0.9869,0.0131	-2527.84
0.9450,0.0550	-2559.25
0.9258,0.0742	-2597.33
0.9279,0.0721	-2584.63
0.9874,0.0126	-2523.45
0.9762,0.0238	-2533.01
0.9837,0.0163	-2532.26
0.9459,0.0541	-2573.46
0.9107,0.0893	-2597.33
0.9368,0.0632	-2562.98
0.9859,0.0141	-2527.93
0.9814,0.0186	-2524.49
0.9849,0.0151	-2536.38
0.9470,0.0530	-2576.34
0.9089,0.0911	-2624.99
0.9427,0.0573	-2570.72
0.9877,0.0123	-2536.56
0.9820,0.0180	-2524.38
0.9840,0.0160	-2524.01
0.9461,0.0539	-2570.60
0.9186,0.0814	-2572.97
0.9424,0.0576	-2573.53
0.9902,0.0098	-2523.11
0.9804,0.0196	-2536.43
0.9802,0.0198	-2536.43
0.9351,0.0649	-2576.53
0.9249,0.0751	-2594.79
0.9414,0.0586	-2573.56
0.9884,0.0116	-2523.31
0.9776,0.0224	-2529.05
0.9780,0.0220	-2528.99
0.9473,0.0527	-2573.46
0.9189,0.0811	-2602.06
0.9416,0.0584	-2556.87
0.9886,0.0114	-2518.83
0.9782,0.0218	-2532.75
0.9811,0.0189	-2540.35
0.9505,0.0495	-2561.67
0.9206,0.0794	-2570.26
0.9468,0.0532	-2561.94
0.9869,0.0131	-2527.85
0.9761,0.0239	-2529.32
0.9800,0.0200	-2524.77
0.9553,0.0447	-2564.49
0.9300,0.0700	-2587.17
0.9603,0.0397	-2548.59
0.9877,0.0123	-2527.79
0.9686,0.0314	-2534.22
0.9820,0.0180	-2528.37
0.9659,0.0341	-2551.44
0.9308,0.0692	-2581.97
0.9649,0.0351	-2558.11
0.9887,0.0113	-2514.32
0.9623,0.0377	-2554.87
0.9844,0.0156	-2544.66
0.9648,0.0352	-2544.87
0.9365,0.0635	-2568.40
0.9633,0.0367	-2571.17
0.9889,0.0111	-2536.71
0.9551,0.0449	-2536.97
0.9852,0.0148	-2527.99
0.9690,0.0310	-2561.69
0.9396,0.0604	-2557.17
0.9619,0.0381	-2551.66
0.9896,0.0104	-2532.28
0.9612,0.0388	-2564.55
0.9841,0.0159	-2519.85
0.9734,0.0266	-2526.21
0.9445,0.0555	-2570.65
0.9617,0.0383	-2551.68
0.9903,0.0097	-2513.85
0.9632,0.0368	-2577.70
0.9823,0.0177	-2528.34
0.9724,0.0276	-2554.94
0.9408,0.0592	-2576.35
0.9570,0.0430	-2579.99
0.9896,0.0104	-2527.73
0.9701,0.0299	-2554.84
0.9826,0.0174	-2524.25
0.9753,0.0247	-2547.84
0.9487,0.0513	-2564.71
0.9626,0.0374	-2558.11
0.9905,0.0095	-2518.44
0.9723,0.0277	-2540.70
0.9753,0.0247	-2529.46
0.9778,0.0222	-2551.73
0.9388,0.0612	-2603.70
0.9618,0.0382	-2567.80
0.9906,0.0094	-2527.73
0.9756,0.0244	-2536.78
0.9726,0.0274	-2537.11
0.9771,0.0229	-2536.65
0.9373,0.0627	-2584.56
0.9560,0.0440	-2582.96
0.9914,0.0086	-2541.99
0.9792,0.0208	-2524.94
0.9725,0.0275	-2558.52
0.9772,0.0228	-2532.87
0.9421,0.0579	-2584.70
0.9621,0.0379	-2561.35
0.9913,0.0087	-2527.76
0.9806,0.0194	-2540.34
0.9740,0.0260	-2536.95
0.9729,0.0271	-2544.24
0.9316,0.0684	-2568.89
0.9638,0.0362	-2554.82
0.9926,0.0074	-2522.95
0.9808,0.0192	-2536.41
0.9718,0.0282	-2554.91
0.9745,0.0255	-2547.82
0.9245,0.0755	-2572.23
0.9687,0.0313	-2551.37
0.9916,0.0084	-2527.77
0.9813,0.0187	-2544.31
0.9724,0.0276	-2530.00
0.9741,0.0259	-2558.70
0.9417,0.0583	-2587.46
0.9801,0.0199	-2536.44
0.9884,0.0116	-2541.09
0.9827,0.0173	-2540.40
0.9756,0.0244	-2547.85
0.9763,0.0237	-2533.00
0.9321,0.0679	-2566.21
0.9814,0.0186	-2532.42
0.9889,0.0111	-2523.25
0.9835,0.0165	-2544.53
0.9689,0.0311	-2541.05
0.9813,0.0187	-2524.52
0.9449,0.0551	-2564.95
0.9817,0.0183	-2536.38
0.9905,0.0095	-2527.73
0.9848,0.0152	-2532.20
0.9719,0.0281	-2551.37
0.9806,0.0194	-2536.42
0.9306,0.0694	-2579.38
0.9816,0.0184	-2532.41
0.9935,0.0065	-2512.90
0.9801,0.0199	-2540.34
0.9725,0.0275	-2554.95
0.9843,0.0157	-2528.09
0.9466,0.0534	-2561.96
0.9814,0.0186	-2524.50
0.9937,0.0063	-2512.84
0.9822,0.0178	-2516.33
0.9776,0.0224	-2529.05
0.9839,0.0161	-2528.14
0.9517,0.0483	-2564.58
0.9797,0.0203	-2532.58
0.9921,0.0079	-2518.13
0.9770,0.0230	-2544.15
0.9794,0.0206	-2544.20
0.9861,0.0139	-2540.69
0.9529,0.0471	-2576.57
0.9824,0.0176	-2532.34
0.9867,0.0133	-2523.55
0.9800,0.0200	-2552.01
0.9751,0.0249	-2540.50
0.9833,0.0167	-2540.43
0.9485,0.0515	-2567.64
0.9843,0.0157	-2532.22
0.9851,0.0149	-2523.81
0.9823,0.0177	-2532.34
0.9721,0.0279	-2544.28
0.9846,0.0154	-2532.21
0.9411,0.0589	-2554.18
0.9890,0.0110	-2536.74
0.9871,0.0129	-2523.49
0.9796,0.0204	-2536.46
0.9698,0.0302	-2551.36
0.9838,0.0162	-2548.68
0.9582,0.0418	-2548.82
0.9879,0.0121	-2540.99
0.9847,0.0153	-2532.21
0.9804,0.0196	-2528.60
0.9643,0.0357	-2558.11
0.9838,0.0162	-2536.36
0.9639,0.0361	-2558.11
0.9885,0.0115	-2541.13
0.9847,0.0153	-2536.37
0.9832,0.0168	-2524.15
0.9676,0.0324	-2554.78
0.9846,0.0154	-2548.84
0.9555,0.0445	-2546.10
0.9868,0.0132	-2527.85
0.9887,0.0113	-2527.75
0.9869,0.0131	-2540.81
0.9663,0.0337	-2534.65
0.9885,0.0115	-2523.30
0.9489,0.0511	-2564.70
0.9877,0.0123	-2519.02
0.9893,0.0107	-2527.73
0.9871,0.0129	-2532.17
0.9684,0.0316	-2565.07
0.9848,0.0152	-2523.85
0.9465,0.0535	-2576.33
0.9880,0.0120	-2527.78
0.9892,0.0108	-2527.74
0.9875,0.0125	-2519.06
0.9617,0.0383	-2548.45
0.9856,0.0144	-2540.64
0.9516,0.0484	-2561.60
0.9911,0.0089	-2518.31
0.9912,0.0088	-2537.20
0.9862,0.0138	-2527.90
0.9653,0.0347	-2561.44
0.9875,0.0125	-2523.44
0.9554,0.0446	-2573.68
0.9913,0.0087	-2518.28
0.9915,0.0085	-2523.01
0.9880,0.0120	-2532.19
0.9631,0.0369	-2561.37
0.9873,0.0127	-2527.82
0.9578,0.0422	-2570.73
0.9917,0.0083	-2522.99
0.9899,0.0101	-2532.31
0.9873,0.0127	-2527.82
0.9586,0.0414	-2564.49
0.9855,0.0145	-2523.74
0.9576,0.0424	-2567.60
0.9926,0.0074	-2532.74
0.9895,0.0105	-2523.19
0.9878,0.0122	-2527.79
0.9518,0.0482	-2561.60
0.9862,0.0138	-2523.62
0.9567,0.0433	-2552.10
0.9937,0.0063	-2522.95
0.9903,0.0097	-2532.35
0.9840,0.0160	-2544.60
0.9525,0.0475	-2540.56
0.9875,0.0125	-2527.81
0.9591,0.0409	-2558.19
0.9932,0.0068	-2527.92
0.9883,0.0117	-2532.20
0.9860,0.0140	-2532.17
0.9473,0.0527	-2573.46
0.9895,0.0105	-2527.73
0.9585,0.0415	-2558.21
0.9928,0.0072	-2532.80
0.9854,0.0146	-2532.18
0.9841,0.0159	-2523.98
0.9500,0.0500	-2564.65
0.9810,0.0190	-2544.29
0.9562,0.0438	-2545.98
0.9931,0.0069	-2517.97
0.9858,0.0142	-2519.46
0.9820,0.0180	-2548.37
0.9476,0.0524	-2558.98
0.9790,0.0210	-2532.66
0.9564,0.0436	-2567.57
0.9944,0.0056	-2522.97
0.9827,0.0173	-2536.36
0.9794,0.0206	-2540.34
0.9287,0.0713	-2564.07
0.9815,0.0185	-2536.38
0.9595,0.0405	-2545.51
0.9947,0.0053	-2512.52
0.9827,0.0173	-2528.28
0.9820,0.0180	-2544.37
0.9174,0.0826	-2570.73
0.9822,0.0178	-2540.37
0.9582,0.0418	-2561.35
0.9950,0.0050	-2523.02
0.9800,0.0200	-2528.66
0.9843,0.0157	-2548.79
0.9284,0.0716	-2584.62
0.9844,0.0156	-2540.51
0.9579,0.0421	-2555.11
0.9949,0.0051	-2528.28
0.9816,0.0184	-2524.46
0.9885,0.0115	-2527.76
0.9362,0.0638	-2568.43
0.9791,0.0209	-2532.64
0.9591,0.0409	-2558.19
0.9953,0.0047	-2517.70
0.9856,0.0144	-2540.63
0.9860,0.0140	-2527.92
0.9344,0.0656	-2584.53
0.9766,0.0234	-2555.34
0.9642,0.0358	-2554.81
0.9956,0.0044	-2533.93
0.9858,0.0142	-2540.66
0.9861,0.0139	-2523.64
0.9320,0.0680	-2574.08
0.9793,0.0207	-2528.77
0.9657,0.0343	-2544.78
0.9955,0.0045	-2533.90
0.9829,0.0171	-2532.31
0.9892,0.0108	-2527.73
0.9261,0.0739	-2577.11
0.9830,0.0170	-2540.41
0.9566,0.0434	-2576.85
0.9948,0.0052	-2517.75
0.9848,0.0152	-2540.54
0.9914,0.0086	-2518.27
0.9496,0.0504	-2544.12
0.9830,0.0170	-2532.30
0.9499,0.0501	-2576.42
0.9942,0.0058	-2528.10
0.9836,0.0164	-2528.16
0.9931,0.0069	-2517.98
0.9601,0.0399	-2580.43
0.9811,0.0189	-2536.40
0.9525,0.0475	-2570.55
0.9947,0.0053	-2517.76
0.9868,0.0132	-2532.17
0.9928,0.0072	-2518.02
0.9685,0.0315	-2547.94
0.9760,0.0240	-2551.56
0.9490,0.0510	-2564.70
0.9944,0.0056	-2522.97
0.9855,0.0145	-2515.31
0.9942,0.0058	-2522.96
0.9710,0.0290	-2530.29
0.9767,0.0233	-2529.20
0.9532,0.0468	-2552.48
0.9945,0.0055	-2517.78
0.9874,0.0126	-2523.45
0.9943,0.0057	-2522.97
0.9598,0.0402	-2542.30
0.9808,0.0192	-2532.48
0.9551,0.0449	-2552.27
0.9932,0.0068	-2532.92
0.9865,0.0135	-2545.05
0.9917,0.0083	-2532.55
0.9637,0.0363	-2561.39
0.9817,0.0183	-2536.38
0.9566,0.0434	-2555.20
0.9927,0.0073	-2513.13
0.9869,0.0131	-2514.87
0.9909,0.0091	-2537.12
0.9643,0.0357	-2544.92
0.9855,0.0145	-2544.84
0.9576,0.0424	-2576.95
0.9934,0.0066	-2532.96
0.9887,0.0113	-2532.22
0.9915,0.0085	-2523.01
0.9650,0.0350	-2551.48
0.9828,0.0172	-2532.31
0.9469,0.0531	-2570.58
0.9928,0.0072	-2518.03
0.9893,0.0107	-2518.67
0.9912,0.0088	-2518.30
0.9703,0.0297	-2547.87
0.9833,0.0167	-2528.20
0.9399,0.0601	-2562.61
0.9936,0.0064	-2533.03
0.9882,0.0118	-2545.49
0.9928,0.0072	-2513.09
0.9751,0.0249	-2544.17
0.9831,0.0169	-2524.16
0.9429,0.0571	-2573.51
0.9924,0.0076	-2522.96
0.9894,0.0106	-2518.65
0.9920,0.0080	-2522.98
0.9784,0.0216	-2536.54
0.9829,0.0171	-2540.41
0.9553,0.0447	-2555.31
0.9934,0.0066	-2517.92
0.9895,0.0105	-2536.81
0.9922,0.0078	-2518.13
0.9761,0.0239	-2536.73
0.9864,0.0136	-2519.32
0.9548,0.0452	-2573.65
0.9935,0.0065	-2527.97
0.9911,0.0089	-2523.04
0.9936,0.0064	-2517.90
0.9778,0.0222	-2551.72
0.9874,0.0126	-2519.09
0.9588,0.0412	-2545.60
0.9902,0.0098	-2527.73
0.9877,0.0123	-2532.18
0.9938,0.0062	-2512.81
0.9819,0.0181	-2540.36
0.9901,0.0099	-2523.13
0.9584,0.0416	-2570.76
0.9908,0.0092	-2532.42
0.9890,0.0110	-2514.26
0.9947,0.0053	-2528.22
0.9791,0.0209	-2524.95
0.9897,0.0103	-2527.73
0.9602,0.0398	-2574.07
0.9909,0.0091	-2537.11
0.9898,0.0102	-2546.01
0.9950,0.0050	-2512.43
0.9738,0.0262	-2555.05
0.9877,0.0123	-2523.41
0.9624,0.0376	-2551.62
0.9914,0.0086	-2542.01
0.9914,0.0086	-2532.51
0.9942,0.0058	-2512.67
0.9711,0.0289	-2558.39
0.9858,0.0142	-2536.42
0.9691,0.0309	-2537.58
0.9905,0.0095	-2527.73
0.9918,0.0082	-2518.19
0.9945,0.0055	-2512.58
0.9732,0.0268	-2558.59
0.9849,0.0151	-2544.73
0.9716,0.0284	-2540.77
0.9847,0.0153	-2519.72
0.9906,0.0094	-2523.08
0.9936,0.0064	-2517.90
0.9751,0.0249	-2525.82
0.9829,0.0171	-2536.36
0.9703,0.0297	-2533.93
0.9817,0.0183	-2524.43
0.9889,0.0111	-2523.25
0.9942,0.0058	-2512.68
0.9699,0.0301	-2547.89
0.9830,0.0170	-2528.24
0.9663,0.0337	-2564.85
0.9836,0.0164	-2528.16
0.9858,0.0142	-2532.18
0.9953,0.0047	-2533.76
0.9689,0.0311	-2554.80
0.9812,0.0188	-2536.39
0.9729,0.0271	-2540.66
0.9824,0.0176	-2540.39
0.9842,0.0158	-2540.49
0.9957,0.0043	-2512.21
0.9757,0.0243	-2544.16
0.9775,0.0225	-2547.93
0.9674,0.0326	-2561.56
0.9844,0.0156	-2523.93
0.9889,0.0111	-2523.25
0.9961,0.0039	-2523.19
0.9782,0.0218	-2532.75
0.9783,0.0217	-2544.17
0.9668,0.0332	-2541.30
0.9861,0.0139	-2536.43
0.9907,0.0093	-2518.40
0.9957,0.0043	-2528.54
0.9738,0.0262	-2526.14
0.9773,0.0227	-2529.09
0.9660,0.0340	-2554.79
0.9805,0.0195	-2528.59
0.9869,0.0131	-2527.85
0.9964,0.0036	-2512.02
0.9661,0.0339	-2548.09
0.9752,0.0248	-2540.49
0.9626,0.0374	-2558.11
0.9845,0.0155	-2544.68
0.9858,0.0142	-2523.69
0.9958,0.0042	-2517.66
0.9732,0.0268	-2544.22
0.9752,0.0248	-2558.85
0.9657,0.0343	-2551.45
0.9811,0.0189	-2540.35
0.9827,0.0173	-2532.32
0.9947,0.0053	-2512.52
0.9790,0.0210	-2524.97
0.9737,0.0263	-2551.43
0.9710,0.0290	-2554.87
0.9816,0.0184	-2536.38
0.9814,0.0186	-2536.38
0.9953,0.0047	-2512.34
0.9811,0.0189	-2540.34
0.9755,0.0245	-2536.79
0.9639,0.0361	-2564.68
0.9852,0.0148	-2523.80
0.9802,0.0198	-2528.63
0.9960,0.0040	-2512.13
0.9839,0.0161	-2528.13
0.9726,0.0274	-2547.82
0.9582,0.0418	-2564.48
0.9851,0.0149	-2519.62
0.9824,0.0176	-2548.43
0.9971,0.0029	-2517.64
0.9844,0.0156	-2523.93
0.9593,0.0407	-2567.66
0.9537,0.0463	-2561.49
0.9895,0.0105	-2518.64
0.9843,0.0157	-2528.08
0.9970,0.0030	-2511.83
0.9846,0.0154	-2532.21
0.9615,0.0385	-2548.47
0.9568,0.0432	-2564.48
0.9886,0.0114	-2523.29
0.9864,0.0136	-2519.31
0.9979,0.0021	-2511.55
0.9869,0.0131	-2527.85
0.9611,0.0389	-2564.54
0.9443,0.0557	-2573.48
0.9881,0.0119	-2518.92
0.9885,0.0115	-2527.76
0.9980,0.0020	-2517.75
0.9813,0.0187	-2548.27
0.9677,0.0323	-2564.98
0.9574,0.0426	-2564.48
0.9889,0.0111	-2523.25
0.9903,0.0097	-2546.22
0.9977,0.0023	-2511.62
0.9786,0.0214	-2544.17
0.9720,0.0280	-2530.08
0.9592,0.0408	-2561.34
0.9884,0.0116	-2527.76
0.9891,0.0109	-2532.25
0.9977,0.0023	-2517.69
0.9799,0.0201	-2532.56
0.9710,0.0290	-2547.85
0.9562,0.0438	-2561.40
0.9880,0.0120	-2514.56
0.9886,0.0114	-2514.37
0.9979,0.0021	-2511.56
0.9817,0.0183	-2536.38
0.9684,0.0316	-2537.68
0.9561,0.0439	-2555.24
0.9857,0.0143	-2527.95
0.9872,0.0128	-2532.17
0.9981,0.0019	-2511.49
0.9779,0.0221	-2540.37
0.9756,0.0244	-2555.22
0.9631,0.0369	-2567.89
0.9833,0.0167	-2540.43
0.9883,0.0117	-2523.33
0.9984,0.0016	-2517.85
0.9756,0.0244	-2525.71
0.9815,0.0185	-2544.33
0.9460,0.0540	-2567.74
0.9846,0.0154	-2528.05
0.9909,0.0091	-2518.35
0.9988,0.0012	-2518.00
0.9754,0.0246	-2536.80
0.9857,0.0143	-2515.23
0.9417,0.0583	-2573.55
0.9852,0.0148	-2527.99
0.9898,0.0102	-2523.15
0.9989,0.0011	-2511.26
0.9772,0.0228	-2540.39
0.9879,0.0121	-2514.59
0.9480,0.0520	-2556.05
0.9842,0.0158	-2552.88
0.9905,0.0095	-2513.79
0.9990,0.0010	-2518.14
0.9735,0.0265	-2533.40
0.9880,0.0120	-2527.78
0.9506,0.0494	-2564.62
0.9851,0.0149	-2523.82
0.9896,0.0104	-2527.73
0.9990,0.0010	-2511.23
0.9779,0.0221	-2544.16
0.9888,0.0112	-2527.75
0.9466,0.0534	-2567.71
0.9821,0.0179	-2528.35
0.9897,0.0103	-2518.60
0.9990,0.0010	-2511.23
0.9764,0.0236	-2532.98
0.9880,0.0120	-2541.01
0.9413,0.0587	-2576.34
0.9791,0.0209	-2528.80
0.9868,0.0132	-2536.48
0.9988,0.0012	-2511.29
0.9799,0.0201	-2552.00
0.9893,0.0107	-2527.73
0.9452,0.0548	-2562.08
0.9802,0.0198	-2544.24
0.9882,0.0118	-2532.20
0.9986,0.0014	-2511.34
0.9817,0.0183	-2528.41
0.9921,0.0079	-2518.14
0.9458,0.0542	-2587.76
0.9785,0.0215	-2536.54
0.9897,0.0103	-2518.59
0.9986,0.0014	-2517.91
0.9809,0.0191	-2544.28
0.9906,0.0094	-2513.75
0.9431,0.0569	-2562.28
0.9736,0.0264	-2547.82
0.9891,0.0109	-2545.76
0.9984,0.0016	-2517.86
0.9858,0.0142	-2527.94
0.9926,0.0074	-2532.74
0.9433,0.0567	-2548.21
0.9750,0.0250	-2529.51
0.9910,0.0090	-2518.35
0.9985,0.0015	-2511.39
0.9860,0.0140	-2532.17
0.9930,0.0070	-2522.94
0.9534,0.0466	-2570.56
0.9705,0.0295	-2547.86
0.9926,0.0074	-2513.16
0.9983,0.0017	-2511.44
0.9841,0.0159	-2540.48
0.9921,0.0079	-2518.13
0.9469,0.0531	-2587.87
0.9606,0.0394	-2561.34
0.9906,0.0094	-2523.08
0.9984,0.0016	-2517.85
0.9835,0.0165	-2532.27
0.9919,0.0081	-2518.17
0.9371,0.0629	-2557.54
0.9629,0.0371	-2567.88
0.9890,0.0110	-2514.26
0.9982,0.0018	-2511.46
0.9855,0.0145	-2523.74
0.9916,0.0084	-2518.22
0.9370,0.0630	-2579.15
0.9656,0.0344	-2564.79
0.9895,0.0105	-2523.18
0.9980,0.0020	-2523.99
0.9871,0.0129	-2532.17
0.9921,0.0079	-2518.14
0.9255,0.0745	-2592.28
0.9725,0.0275	-2554.95
0.9911,0.0089	-2537.17
0.9982,0.0018	-2511.48
0.9879,0.0121	-2527.78
0.9922,0.0078	-2547.23
0.9319,0.0681	-2568.85
0.9814,0.0186	-2540.35
0.9910,0.0090	-2523.04
0.9984,0.0016	-2511.41
0.9888,0.0112	-2541.19
0.9930,0.0070	-2517.99
0.9222,0.0778	-2602.18
0.9787,0.0213	-2528.87
0.9936,0.0064	-2512.87
0.9982,0.0018	-2524.11
0.9876,0.0124	-2514.65
0.9937,0.0063	-2512.82
0.9300,0.0700	-2589.75
0.9819,0.0181	-2532.38
0.9914,0.0086	-2523.01
0.9979,0.0021	-2511.55
0.9865,0.0135	-2532.17
0.9938,0.0062	-2528.02
0.9328,0.0672	-2574.02
0.9812,0.0188	-2540.35
0.9899,0.0101	-2532.31
0.9981,0.0019	-2517.78
0.9860,0.0140	-2519.41
0.9921,0.0079	-2527.81
0.9229,0.0771	-2584.84
0.9782,0.0218	-2540.36
0.9900,0.0100	-2518.54
0.9980,0.0020	-2517.75
0.9880,0.0120	-2527.78
0.9922,0.0078	-2532.66
0.9234,0.0766	-2584.81
0.9839,0.0161	-2536.36
0.9916,0.0084	-2523.00
0.9976,0.0024	-2511.65
0.9870,0.0130	-2523.51
0.9912,0.0088	-2523.02
0.9236,0.0764	-2579.82
0.9798,0.0202	-2544.22
0.9912,0.0088	-2532.48
0.9976,0.0024	-2511.64
0.9878,0.0122	-2532.18
0.9914,0.0086	-2523.01
0.9121,0.0879	-2573.90
0.9800,0.0200	-2540.34
0.9913,0.0087	-2523.02
0.9977,0.0023	-2523.76
0.9855,0.0145	-2532.18
0.9929,0.0071	-2522.95
0.9073,0.0927	-2604.29
0.9770,0.0230	-2536.66
0.9900,0.0100	-2518.53
0.9980,0.0020	-2511.54
0.9774,0.0226	-2555.45
0.9907,0.0093	-2518.39
0.8959,0.1041	-2580.92
0.9761,0.0239	-2551.57
0.9899,0.0101	-2523.14
0.9978,0.0022	-2536.11
0.9779,0.0221	-2536.58
0.9891,0.0109	-2527.74
0.9005,0.0995	-2604.42
0.9802,0.0198	-2540.34
0.9854,0.0146	-2544.83
0.9976,0.0024	-2511.66
0.9824,0.0176	-2540.38
0.9886,0.0114	-2523.29
0.9111,0.0889	-2581.03
0.9842,0.0158	-2548.75
0.9871,0.0129	-2527.83
0.9976,0.0024	-2517.68
0.9858,0.0142	-2544.91
0.9904,0.0096	-2527.73
0.9325,0.0675	-2595.04
0.9874,0.0126	-2519.09
0.9867,0.0133	-2532.17
0.9971,0.0029	-2517.65
0.9884,0.0116	-2532.21
0.9916,0.0084	-2518.22
0.9249,0.0751	-2572.19
0.9863,0.0137	-2536.45
0.9906,0.0094	-2518.41
0.9968,0.0032	-2511.89
0.9893,0.0107	-2523.20
0.9923,0.0077	-2513.26
0.9282,0.0718	-2599.98
0.9849,0.0151	-2528.02
0.9887,0.0113	-2523.27
0.9966,0.0034	-2517.63
0.9875,0.0125	-2514.71
0.9924,0.0076	-2522.96
0.9292,0.0708	-2589.75
0.9880,0.0120	-2532.19
0.9862,0.0138	-2544.99
0.9965,0.0035	-2517.63
0.9889,0.0111	-2532.23
0.9898,0.0102	-2541.44
0.9238,0.0762	-2599.77
0.9892,0.0108	-2532.25
0.9866,0.0134	-2519.26
0.9968,0.0032	-2517.63
0.9898,0.0102	-2527.73
0.9882,0.0118	-2527.77
0.9221,0.0779	-2592.29
0.9888,0.0112	-2541.19
0.9812,0.0188	-2524.53
0.9965,0.0035	-2517.63
0.9906,0.0094	-2518.41
0.9880,0.0120	-2523.37
0.9275,0.0725	-2579.55
0.9921,0.0079	-2537.47
0.9827,0.0173	-2552.52
0.9978,0.0022	-2517.72
0.9924,0.0076	-2513.21
0.9893,0.0107	-2532.26
0.9469,0.0531	-2559.06
0.9915,0.0085	-2513.49
0.9820,0.0180	-2532.37
0.9975,0.0025	-2511.68
0.9906,0.0094	-2518.41
0.9919,0.0081	-2527.79
0.9479,0.0521	-2576.36
0.9911,0.0089	-2527.75
0.9830,0.0170	-2524.19
0.9979,0.0021	-2511.56
0.9930,0.0070	-2522.95
0.9925,0.0075	-2518.07
0.9619,0.0381	-2554.89
0.9903,0.0097	-2527.73
0.9786,0.0214	-2525.06
0.9979,0.0021	-2511.55
0.9922,0.0078	-2518.13
0.9936,0.0064	-2512.85
0.9609,0.0391	-2548.53
0.9913,0.0087	-2518.28
0.9767,0.0233	-2536.68
0.9982,0.0018	-2511.48
0.9911,0.0089	-2532.45
0.9939,0.0061	-2517.86
0.9636,0.0364	-2554.83
0.9921,0.0079	-2518.14
0.9751,0.0249	-2536.83
0.9978,0.0022	-2511.59
0.9902,0.0098	-2527.73
0.9940,0.0060	-2517.84
0.9631,0.0369	-2545.06
0.9928,0.0072	-2527.88
0.9761,0.0239	-2540.44
0.9980,0.0020	-2517.74
0.9896,0.0104	-2532.29
0.9931,0.0069	-2522.94
0.9577,0.0423	-2561.36
0.9927,0.0073	-2542.62
0.9756,0.0244	-2544.16
0.9981,0.0019	-2517.77
0.9868,0.0132	-2532.17
0.9923,0.0077	-2527.82
0.9680,0.0320	-2544.56
0.9925,0.0075	-2518.07
0.9750,0.0250	-2540.50
0.9976,0.0024	-2523.71
0.9853,0.0147	-2527.98
0.9932,0.0068	-2517.96
0.9694,0.0306	-2534.08
0.9927,0.0073	-2522.95
0.9723,0.0277	-2554.94
0.9980,0.0020	-2517.74
0.9878,0.0122	-2527.79
0.9914,0.0086	-2513.51
0.9658,0.0342	-2544.76
0.9919,0.0081	-2518.18
0.9714,0.0286	-2547.84
0.9984,0.0016	-2511.41
0.9857,0.0143	-2527.94
0.9917,0.0083	-2522.99
0.9692,0.0308	-2534.12
0.9914,0.0086	-2518.26
0.9787,0.0213	-2532.69
0.9988,0.0012	-2511.28
0.9876,0.0124	-2523.42
0.9913,0.0087	-2532.48
0.9772,0.0228	-2532.87
0.9904,0.0096	-2527.73
0.9781,0.0219	-2532.76
0.9990,0.0010	-2511.24
0.9858,0.0142	-2536.42
0.9914,0.0086	-2532.51
0.9733,0.0267	-2547.82
0.9918,0.0082	-2513.38
0.9753,0.0247	-2544.16
0.9989,0.0011	-2511.28
0.9852,0.0148	-2527.99
0.9888,0.0112	-2527.75
0.9716,0.0284	-2547.83
0.9912,0.0088	-2532.47
0.9658,0.0342	-2551.45
0.9986,0.0014	-2517.91
0.9835,0.0165	-2540.44
0.9878,0.0122	-2527.79
0.9691,0.0309	-2561.69
0.9910,0.0090	-2527.74
0.9756,0.0244	-2547.84
0.9986,0.0014	-2511.37
0.9849,0.0151	-2532.20
0.9856,0.0144	-2532.18
0.9683,0.0317	-2547.95
0.9907,0.0093	-2537.06
0.9787,0.0213	-2544.18
0.9985,0.0015	-2511.37
0.9845,0.0155	-2523.91
0.9859,0.0141	-2536.42
0.9700,0.0300	-2540.93
0.9882,0.0118	-2518.91
0.9795,0.0205	-2544.20
0.9985,0.0015	-2511.39
0.9855,0.0145	-2527.96
0.9854,0.0146	-2536.40
0.9741,0.0259	-2540.56
0.9885,0.0115	-2536.66
0.9773,0.0227	-2540.39
0.9985,0.0015	-2511.38
0.9887,0.0113	-2514.33
0.9877,0.0123	-2527.79
0.9753,0.0247	-2536.81
0.9879,0.0121	-2518.98
0.9767,0.0233	-2544.15
0.9989,0.0011	-2511.27
0.9898,0.0102	-2532.30
0.9875,0.0125	-2519.06
0.9788,0.0212	-2525.01
0.9868,0.0132	-2549.42
0.9844,0.0156	-2528.08
0.9987,0.0013	-2524.56
0.9883,0.0117	-2527.76
0.9856,0.0144	-2540.63
0.9779,0.0221	-2544.16
0.9896,0.0104	-2532.29
0.9813,0.0187	-2528.47
0.9987,0.0013	-2511.34
0.9890,0.0110	-2523.24
0.9835,0.0165	-2524.08
0.9722,0.0278	-2544.27
0.9908,0.0092	-2527.74
0.9847,0.0153	-2536.37
0.9987,0.0013	-2511.33
0.9919,0.0081	-2527.79
0.9875,0.0125	-2527.81
0.9747,0.0253	-2540.52
0.9912,0.0088	-2518.30
0.9856,0.0144	-2532.18
0.9981,0.0019	-2511.50
0.9925,0.0075	-2527.84
0.9889,0.0111	-2532.23
0.9811,0.0189	-2536.40
0.9911,0.0089	-2527.74
0.9843,0.0157	-2523.95
0.9982,0.0018	-2511.48
0.9914,0.0086	-2537.25
0.9908,0.0092	-2513.69
0.9822,0.0178	-2528.34
0.9912,0.0088	-2523.03
0.9839,0.0161	-2528.13
0.9979,0.0021	-2511.57
0.9897,0.0103	-2523.16
0.9904,0.0096	-2527.73
0.9833,0.0167	-2536.35
0.9911,0.0089	-2532.46
0.9859,0.0141	-2532.17
0.9978,0.0022	-2511.60
0.9910,0.0090	-2527.74
0.9890,0.0110	-2523.24
0.9839,0.0161	-2532.24
0.9921,0.0079	-2522.97
0.9826,0.0174	-2540.39
0.9973,0.0027	-2517.66
0.9900,0.0100	-2527.73
0.9897,0.0103	-2532.30
0.9827,0.0173	-2540.40
0.9925,0.0075	-2527.84
0.9867,0.0133	-2519.25
0.9972,0.0028	-2517.65
0.9906,0.0094	-2523.07
0.9894,0.0106	-2545.87
0.9814,0.0186	-2528.45
0.9925,0.0075	-2513.19
0.9877,0.0123	-2523.41
0.9972,0.0028	-2511.78
0.9907,0.0093	-2523.07
0.9875,0.0125	-2519.07
0.9784,0.0216	-2536.55
0.9928,0.0072	-2532.79
0.9891,0.0109	-2527.74
0.9979,0.0021	-2511.55
0.9904,0.0096	-2537.01
0.9874,0.0126	-2527.81
0.9741,0.0259	-2555.07
0.9921,0.0079	-2518.14
0.9856,0.0144	-2523.73
0.9980,0.0020	-2517.74
0.9886,0.0114	-2523.29
0.9854,0.0146	-2523.75
0.9657,0.0343	-2568.13
0.9913,0.0087	-2513.55
0.9874,0.0126	-2532.17
0.9982,0.0018	-2511.48
0.9888,0.0112	-2523.26
0.9840,0.0160	-2536.36
0.9659,0.0341	-2571.51
0.9928,0.0072	-2527.88
0.9877,0.0123	-2523.40
0.9984,0.0016	-2511.42
0.9908,0.0092	-2541.79
0.9859,0.0141	-2523.68
0.9631,0.0369	-2561.37
0.9929,0.0071	-2522.95
0.9881,0.0119	-2541.02
0.9989,0.0011	-2511.28
0.9915,0.0085	-2527.76
0.9846,0.0154	-2532.21
0.9650,0.0350	-2544.85
0.9918,0.0082	-2518.19
0.9866,0.0134	-2514.99
0.9991,0.0009	-2511.22
0.9911,0.0089	-2537.17
0.9857,0.0143	-2523.71
0.9649,0.0351	-2564.74
0.9909,0.0091	-2532.43
0.9849,0.0151	-2544.74
0.9992,0.0008	-2511.18
0.9926,0.0074	-2518.05
0.9876,0.0124	-2527.80
0.9700,0.0300	-2558.31
0.9882,0.0118	-2523.34
0.9868,0.0132	-2532.17
0.9993,0.0007	-2518.39
0.9926,0.0074	-2513.15
0.9910,0.0090	-2513.62
0.9764,0.0236	-2525.54
0.9866,0.0134	-2540.76
0.9850,0.0150	-2532.20
0.9993,0.0007	-2511.14
0.9941,0.0059	-2522.96
0.9909,0.0091	-2523.05
0.9752,0.0248	-2536.82
0.9880,0.0120	-2536.60
0.9829,0.0171	-2544.46
0.9992,0.0008	-2511.16
0.9945,0.0055	-2528.16
0.9927,0.0073	-2518.04
0.9738,0.0262	-2551.43
0.9896,0.0104	-2523.17
0.9854,0.0146	-2536.39
0.9992,0.0008	-2511.17
0.9929,0.0071	-2522.95
0.9926,0.0074	-2527.85
0.9733,0.0267	-2555.01
0.9910,0.0090	-2513.65
0.9867,0.0133	-2523.55
0.9993,0.0007	-2511.14
0.9924,0.0076	-2527.84
0.9934,0.0066	-2517.92
0.9711,0.0289	-2551.36
0.9939,0.0061	-2512.75
0.9852,0.0148	-2527.99
0.9991,0.0009	-2511.21
0.9915,0.0085	-2523.00
0.9932,0.0068	-2527.93
0.9724,0.0276	-2558.50
0.9936,0.0064	-2517.90
0.9831,0.0169	-2524.17
0.9989,0.0011	-2511.27
0.9920,0.0080	-2522.98
0.9916,0.0084	-2527.77
0.9701,0.0299	-2554.83
0.9927,0.0073	-2532.78
0.9823,0.0177	-2536.36
0.9988,0.0012	-2511.30
0.9906,0.0094	-2523.07
0.9889,0.0111	-2514.29
0.9648,0.0352	-2541.55
0.9926,0.0074	-2518.06
0.9777,0.0223	-2540.37
0.9986,0.0014	-2517.93
0.9900,0.0100	-2523.13
0.9876,0.0124	-2532.18
0.9622,0.0378	-2548.40
0.9930,0.0070	-2522.94
0.9787,0.0213	-2536.52
0.9989,0.0011	-2511.25
0.9889,0.0111	-2527.74
0.9889,0.0111	-2523.26
0.9682,0.0318	-2554.79
0.9928,0.0072	-2527.88
0.9821,0.0179	-2524.34
0.9989,0.0011	-2518.10
0.9879,0.0121	-2518.97
0.9842,0.0158	-2532.23
0.9696,0.0304	-2554.82
0.9931,0.0069	-2522.94
0.9883,0.0117	-2523.33
0.9990,0.0010	-2511.25
0.9858,0.0142	-2544.90
0.9875,0.0125	-2527.80
0.9618,0.0382	-2548.44
0.9914,0.0086	-2523.01
0.9871,0.0129	-2540.84
0.9994,0.0006	-2511.12
0.9838,0.0162	-2552.79
0.9851,0.0149	-2523.81
0.9630,0.0370	-2548.33
0.9897,0.0103	-2532.30
0.9856,0.0144	-2519.50
0.9995,0.0005	-2511.10
0.9863,0.0137	-2549.27
0.9860,0.0140	-2527.92
0.9517,0.0483	-2582.46
0.9878,0.0122	-2532.18
0.9878,0.0122	-2523.39
0.9994,0.0006	-2511.11
0.9847,0.0153	-2523.88
0.9858,0.0142	-2536.41
0.9596,0.0404	-2558.17
0.9872,0.0128	-2523.48
0.9880,0.0120	-2536.60
0.9995,0.0005	-2511.09
0.9862,0.0138	-2527.90
0.9868,0.0132	-2532.17
0.9538,0.0462	-2570.57
0.9803,0.0197	-2555.97
0.9882,0.0118	-2514.49
0.9995,0.0005	-2511.09
0.9865,0.0135	-2545.03
0.9851,0.0149	-2536.38
0.9559,0.0441	-2561.41
0.9788,0.0212	-2548.01
0.9887,0.0113	-2523.27
0.9995,0.0005	-2511.08
0.9853,0.0147	-2527.98
0.9888,0.0112	-2536.70
0.9528,0.0472	-2576.56
0.9792,0.0208	-2540.34
0.9899,0.0101	-2536.90
0.9995,0.0005	-2511.08
0.9866,0.0134	-2523.57
0.9870,0.0130	-2532.17
0.9633,0.0367	-2548.30
0.9764,0.0236	-2562.77
0.9913,0.0087	-2527.75
0.9995,0.0005	-2511.09
0.9859,0.0141	-2532.17
0.9857,0.0143	-2536.41
0.9670,0.0330	-2548.03
0.9787,0.0213	-2532.70
0.9904,0.0096	-2527.73
0.9995,0.0005	-2511.09
0.9869,0.0131	-2523.53
0.9857,0.0143	-2536.41
0.9682,0.0318	-2544.54
0.9813,0.0187	-2528.46
0.9909,0.0091	-2527.74
0.9995,0.0005	-2511.09
0.9867,0.0133	-2536.47
0.9868,0.0132	-2523.54
0.9667,0.0333	-2534.57
0.9865,0.0135	-2540.75
0.9888,0.0112	-2527.74
0.9993,0.0007	-2518.46
0.9873,0.0127	-2532.17
0.9854,0.0146	-2549.03
0.9740,0.0260	-2551.44
0.9837,0.0163	-2544.55
0.9881,0.0119	-2523.36
0.9992,0.0008	-2511.19
0.9823,0.0177	-2540.38
0.9802,0.0198	-2540.34
0.9758,0.0242	-2547.85
0.9827,0.0173	-2540.40
0.9865,0.0135	-2532.17
0.9991,0.0009	-2511.21
0.9821,0.0179	-2536.37
0.9844,0.0156	-2540.51
0.9801,0.0199	-2540.34
0.9862,0.0138	-2527.90
0.9873,0.0127	-2532.17
0.9990,0.0010	-2511.23
0.9808,0.0192	-2520.67
0.9854,0.0146	-2527.97
0.9813,0.0187	-2544.31
0.9830,0.0170	-2532.29
0.9892,0.0108	-2527.73
0.9988,0.0012	-2511.29
0.9794,0.0206	-2540.34
0.9870,0.0130	-2514.86
0.9808,0.0192	-2524.60
0.9861,0.0139	-2527.90
0.9899,0.0101	-2541.49
0.9986,0.0014	-2511.34
0.9813,0.0187	-2532.42
0.9848,0.0152	-2523.86
0.9795,0.0205	-2540.34
0.9859,0.0141	-2540.67
0.9901,0.0099	-2518.51
0.9989,0.0011	-2511.26
0.9835,0.0165	-2528.18
0.9832,0.0168	-2524.15
0.9812,0.0188	-2532.43
0.9836,0.0164	-2532.26
0.9886,0.0114	-2523.29
0.9984,0.0016	-2511.41
0.9815,0.0185	-2532.41
0.9842,0.0158	-2536.36
0.9828,0.0172	-2536.36
0.9818,0.0182	-2520.43
0.9876,0.0124	-2519.04
0.9985,0.0015	-2517.88
0.9853,0.0147	-2557.42
0.9886,0.0114	-2523.28
0.9821,0.0179	-2532.36
0.9823,0.0177	-2532.34
0.9883,0.0117	-2532.20
0.9985,0.0015	-2511.39
0.9850,0.0150	-2519.64
0.9886,0.0114	-2532.22
0.9766,0.0234	-2532.96
0.9839,0.0161	-2532.24
0.9897,0.0103	-2518.59
0.9983,0.0017	-2524.17
0.9846,0.0154	-2536.37
0.9889,0.0111	-2523.25
0.9775,0.0225	-2540.38
0.9843,0.0157	-2540.50
0.9869,0.0131	-2532.17
0.9981,0.0019	-2511.51
0.9865,0.0135	-2532.17
0.9898,0.0102	-2514.00
0.9765,0.0235	-2555.33
0.9856,0.0144	-2540.63
0.9883,0.0117	-2536.64
0.9979,0.0021	-2511.55
0.9843,0.0157	-2536.36
0.9899,0.0101	-2518.55
0.9732,0.0268	-2547.82
0.9838,0.0162	-2524.04
0.9849,0.0151	-2544.73
0.9977,0.0023	-2511.61
0.9871,0.0129	-2523.50
0.9901,0.0099	-2536.93
0.9750,0.0250	-2540.50
0.9869,0.0131	-2532.17
0.9856,0.0144	-2523.73
0.9977,0.0023	-2517.70
0.9874,0.0126	-2523.45
0.9909,0.0091	-2532.42
0.9715,0.0285	-2540.78
0.9868,0.0132	-2532.17
0.9879,0.0121	-2523.38
0.9976,0.0024	-2511.65
0.9890,0.0110	-2527.74
0.9902,0.0098	-2513.88
0.9689,0.0311	-2561.68
0.9833,0.0167	-2528.21
0.9863,0.0137	-2536.44
0.9977,0.0023	-2517.70
0.9894,0.0106	-2527.73
0.9898,0.0102	-2523.15
0.9573,0.0427	-2548.92
0.9863,0.0137	-2527.89
0.9855,0.0145	-2544.83
0.9982,0.0018	-2517.78
0.9909,0.0091	-2523.05
0.9908,0.0092	-2537.10
0.9640,0.0360	-2561.39
0.9872,0.0128	-2545.21
0.9870,0.0130	-2536.50
0.9982,0.0018	-2511.48
0.9926,0.0074	-2522.95
0.9923,0.0077	-2518.11
0.9629,0.0371	-2551.59
0.9897,0.0103	-2527.73
0.9851,0.0149	-2532.19
0.9979,0.0021	-2511.56
0.9941,0.0059	-2522.96
0.9932,0.0068	-2527.93
0.9594,0.0406	-2539.19
0.9901,0.0099	-2518.52
0.9852,0.0148	-2536.39
0.9978,0.0022	-2511.59
0.9946,0.0054	-2517.77
0.9921,0.0079	-2522.97
0.9641,0.0359	-2551.53
0.9913,0.0087	-2513.55
0.9868,0.0132	-2527.85
0.9976,0.0024	-2517.68
0.9948,0.0052	-2517.75
0.9924,0.0076	-2518.09
0.9613,0.0387	-2567.76
0.9915,0.0085	-2523.01
0.9854,0.0146	-2536.40
0.9977,0.0023	-2517.70
0.9945,0.0055	-2512.59
0.9938,0.0062	-2517.87
0.9582,0.0418	-2561.35
0.9899,0.0101	-2518.56
0.9856,0.0144	-2532.18
0.9976,0.0024	-2517.68
0.9938,0.0062	-2522.95
0.9934,0.0066	-2527.96
0.9619,0.0381	-2551.66
0.9874,0.0126	-2532.17
0.9868,0.0132	-2523.54
0.9967,0.0033	-2517.63
0.9941,0.0059	-2517.84
0.9925,0.0075	-2513.18
0.9627,0.0373	-2567.86
0.9912,0.0088	-2532.48
0.9854,0.0146	-2532.19
0.9971,0.0029	-2529.31
0.9950,0.0050	-2517.73
0.9935,0.0065	-2522.94
0.9586,0.0414	-2573.92
0.9930,0.0070	-2517.99
0.9874,0.0126	-2514.74
0.9965,0.0035	-2511.99
0.9933,0.0067	-2517.94
0.9937,0.0063	-2522.95
0.9668,0.0332	-2571.63
0.9917,0.0083	-2522.99
0.9852,0.0148	-2523.79
0.9960,0.0040	-2512.14
0.9934,0.0066	-2512.90
0.9933,0.0067	-2512.95
0.9661,0.0339	-2534.68
0.9896,0.0104	-2518.62
0.9852,0.0148	-2532.19
0.9961,0.0039	-2512.11
0.9929,0.0071	-2522.95
0.9927,0.0073	-2513.11
0.9567,0.0433	-2583.05
0.9912,0.0088	-2541.93
0.9821,0.0179	-2536.37
0.9962,0.0038	-2517.64
0.9920,0.0080	-2522.98
0.9919,0.0081	-2537.39
0.9657,0.0343	-2541.44
0.9920,0.0080	-2518.16
0.9852,0.0148	-2528.00
0.9965,0.0035	-2523.28
0.9914,0.0086	-2513.52
0.9916,0.0084	-2523.00
0.9699,0.0301	-2547.88
0.9925,0.0075	-2518.07
0.9876,0.0124	-2514.66
0.9970,0.0030	-2523.45
0.9899,0.0101	-2523.14
0.9931,0.0069	-2522.94
0.9638,0.0362	-2564.67
0.9922,0.0078	-2522.97
0.9885,0.0115	-2527.76
0.9972,0.0028	-2511.76
0.9887,0.0113	-2532.22
0.9929,0.0071	-2518.00
0.9630,0.0370	-2545.07
0.9952,0.0048	-2523.04
0.9895,0.0105	-2523.19
0.9972,0.0028	-2511.76
0.9907,0.0093	-2518.39
0.9931,0.0069	-2517.97
0.9737,0.0263	-2536.98
0.9937,0.0063	-2522.95
0.9888,0.0112	-2518.78
0.9967,0.0033	-2517.63
0.9901,0.0099	-2523.12
0.9926,0.0074	-2537.63
0.9831,0.0169	-2528.23
0.9916,0.0084	-2527.77
0.9896,0.0104	-2527.73
0.9975,0.0025	-2511.68
0.9899,0.0101	-2523.14
0.9941,0.0059	-2517.83
0.9804,0.0196	-2532.51
0.9909,0.0091	-2523.05
0.9881,0.0119	-2518.94
0.9976,0.0024	-2511.65
0.9901,0.0099	-2523.12
0.9932,0.0068	-2522.94
0.9788,0.0212	-2540.35
0.9919,0.0081	-2522.98
0.9868,0.0132	-2545.11
0.9975,0.0025	-2511.68
0.9906,0.0094	-2527.73
0.9936,0.0064	-2512.85
0.9801,0.0199	-2532.54
0.9911,0.0089	-2523.03
0.9872,0.0128	-2519.13
0.9974,0.0026	-2517.67
0.9926,0.0074	-2522.95
0.9937,0.0063	-2522.95
0.9777,0.0223	-2547.94
0.9909,0.0091	-2532.43
0.9851,0.0149	-2523.82
0.9974,0.0026	-2517.67
0.9934,0.0066	-2517.93
0.9928,0.0072	-2518.02
0.9794,0.0206	-2540.34
0.9886,0.0114	-2541.13
0.9817,0.0183	-2544.35
0.9977,0.0023	-2523.74
0.9940,0.0060	-2517.85
0.9950,0.0050	-2512.42
0.9801,0.0199	-2536.44
0.9894,0.0106	-2527.73
0.9805,0.0195	-2540.34
0.9977,0.0023	-2523.76
0.9943,0.0057	-2522.97
0.9943,0.0057	-2512.63
0.9775,0.0225	-2540.38
0.9872,0.0128	-2523.48
0.9803,0.0197	-2532.52
0.9975,0.0025	-2511.70
0.9951,0.0049	-2523.03
0.9929,0.0071	-2527.88
0.9746,0.0254	-2533.23
0.9856,0.0144	-2544.86
0.9794,0.0206	-2524.89
0.9965,0.0035	-2523.30
0.9940,0.0060	-2528.06
0.9931,0.0069	-2522.94
0.9706,0.0294	-2544.36
0.9834,0.0166	-2536.35
0.9784,0.0216	-2567.06
0.9970,0.0030	-2523.46
0.9951,0.0049	-2517.72
0.9940,0.0060	-2528.07
0.9646,0.0354	-2554.81
0.9811,0.0189	-2520.60
0.9814,0.0186	-2540.35
0.9963,0.0037	-2512.05
0.9947,0.0053	-2512.52
0.9937,0.0063	-2538.11
0.9643,0.0357	-2544.92
0.9795,0.0205	-2540.34
0.9828,0.0172	-2540.40
0.9960,0.0040	-2517.65
0.9955,0.0045	-2512.29
0.9913,0.0087	-2523.02
0.9637,0.0363	-2558.11
0.9791,0.0209	-2536.50
0.9843,0.0157	-2536.36
0.9964,0.0036	-2512.01
0.9952,0.0048	-2523.05
0.9909,0.0091	-2513.66
0.9674,0.0326	-2561.56
0.9747,0.0253	-2555.13
0.9852,0.0148	-2540.58
0.9971,0.0029	-2523.48
0.9950,0.0050	-2512.43
0.9910,0.0090	-2532.44
0.9636,0.0364	-2548.28
0.9763,0.0237	-2536.72
0.9837,0.0163	-2528.15
0.9980,0.0020	-2511.53
0.9948,0.0052	-2517.75
0.9905,0.0095	-2527.73
0.9573,0.0427	-2567.59
0.9749,0.0251	-2533.20
0.9890,0.0110	-2523.25
0.9980,0.0020	-2511.55
0.9947,0.0053	-2522.99
0.9915,0.0085	-2527.77
0.9563,0.0437	-2539.80
0.9699,0.0301	-2540.93
0.9865,0.0135	-2527.87
0.9978,0.0022	-2511.58
0.9944,0.0056	-2522.97
0.9892,0.0108	-2523.22
0.9577,0.0423	-2552.00
0.9653,0.0347	-2571.42
0.9872,0.0128	-2536.51
0.9978,0.0022	-2523.80
0.9943,0.0057	-2522.97
0.9889,0.0111	-2554.67
0.9616,0.0384	-2545.24
0.9590,0.0410	-2545.58
0.9859,0.0141	-2523.68
0.9976,0.0024	-2517.68
0.9947,0.0053	-2517.76
0.9896,0.0104	-2532.28
0.9617,0.0383	-2558.12
0.9600,0.0400	-2539.09
0.9858,0.0142	-2532.18
0.9978,0.0022	-2517.72
0.9940,0.0060	-2522.96
0.9897,0.0103	-2532.29
0.9649,0.0351	-2544.86
0.9607,0.0393	-2561.34
0.9864,0.0136	-2527.89
0.9977,0.0023	-2511.62
0.9959,0.0041	-2523.14
0.9937,0.0063	-2512.82
0.9619,0.0381	-2541.97
0.9677,0.0323	-2541.19
0.9868,0.0132	-2519.23
0.9976,0.0024	-2523.71
0.9960,0.0040	-2512.14
0.9941,0.0059	-2512.70
0.9650,0.0350	-2558.12
0.9621,0.0379	-2548.41
0.9896,0.0104	-2532.28
0.9972,0.0028	-2523.52
0.9964,0.0036	-2517.64
0.9949,0.0051	-2517.74
0.9638,0.0362	-2564.67
0.9577,0.0423	-2545.76
0.9904,0.0096	-2527.73
0.9969,0.0031	-2517.64
0.9962,0.0038	-2528.78
0.9956,0.0044	-2512.24
0.9672,0.0328	-2551.40
0.9494,0.0506	-2552.95
0.9916,0.0084	-2523.00
0.9965,0.0035	-2511.98
0.9964,0.0036	-2523.25
0.9944,0.0056	-2517.80
0.9640,0.0360	-2551.53
0.9525,0.0475	-2555.55
0.9907,0.0093	-2518.40
0.9964,0.0036	-2528.89
0.9971,0.0029	-2511.81
0.9945,0.0055	-2517.78
0.9653,0.0347	-2554.79
0.9577,0.0423	-2561.36
0.9899,0.0101	-2518.56
0.9962,0.0038	-2512.07
0.9969,0.0031	-2517.64
0.9938,0.0062	-2522.95
0.9708,0.0292	-2554.86
0.9593,0.0407	-2539.21
0.9892,0.0108	-2518.69
0.9968,0.0032	-2511.90
0.9959,0.0041	-2512.15
0.9940,0.0060	-2522.96
0.9628,0.0372	-2558.11
0.9680,0.0320	-2544.56
0.9893,0.0107	-2523.20
0.9953,0.0047	-2512.35
0.9958,0.0042	-2512.18
0.9922,0.0078	-2522.97
0.9625,0.0375	-2538.63
0.9694,0.0306	-2551.36
0.9875,0.0125	-2527.80
0.9952,0.0048	-2512.37
0.9959,0.0041	-2528.65
0.9932,0.0068	-2517.96
0.9679,0.0321	-2544.57
0.9730,0.0270	-2547.82
0.9885,0.0115	-2536.66
0.9944,0.0056	-2512.60
0.9950,0.0050	-2512.43
0.9938,0.0062	-2533.09
0.9723,0.0277	-2544.26
0.9687,0.0313	-2554.80
0.9888,0.0112	-2518.77
0.9957,0.0043	-2517.67
0.9951,0.0049	-2528.34
0.9954,0.0046	-2528.45
0.9736,0.0264	-2536.99
0.9665,0.0335	-2537.97
0.9874,0.0126	-2540.89
0.9963,0.0037	-2512.03
0.9959,0.0041	-2517.66
0.9949,0.0051	-2517.73
0.9718,0.0282	-2537.21
0.9651,0.0349	-2561.43
0.9888,0.0112	-2532.23
0.9953,0.0047	-2523.06
0.9968,0.0032	-2523.37
0.9938,0.0062	-2517.88
0.9734,0.0266	-2540.62
0.9634,0.0366	-2538.48
0.9899,0.0101	-2518.57
0.9944,0.0056	-2517.80
0.9973,0.0027	-2517.65
0.9933,0.0067	-2522.94
0.9808,0.0192	-2532.48
0.9759,0.0241	-2529.35
0.9898,0.0102	-2514.00
0.9935,0.0065	-2522.94
0.9973,0.0027	-2511.74
0.9947,0.0053	-2517.76
0.9793,0.0207	-2559.62
0.9770,0.0230	-2544.15
0.9908,0.0092	-2532.41
0.9923,0.0077	-2518.11
0.9971,0.0029	-2511.79
0.9938,0.0062	-2512.78
0.9739,0.0261	-2551.44
0.9768,0.0232	-2547.89
0.9886,0.0114	-2523.29
0.9916,0.0084	-2532.54
0.9970,0.0030	-2511.83
0.9948,0.0052	-2528.27
0.9692,0.0308	-2537.56
0.9735,0.0265	-2540.61
0.9900,0.0100	-2523.13
0.9917,0.0083	-2513.41
0.9963,0.0037	-2512.05
0.9944,0.0056	-2517.79
0.9708,0.0292	-2544.35
0.9711,0.0289	-2547.85
0.9909,0.0091	-2513.66
0.9922,0.0078	-2518.13
0.9953,0.0047	-2512.35
0.9951,0.0049	-2517.72
0.9750,0.0250	-2551.50
0.9723,0.0277	-2551.38
0.9896,0.0104	-2523.17
0.9906,0.0094	-2532.39
0.9954,0.0046	-2517.69
0.9950,0.0050	-2523.02
0.9677,0.0323	-2541.19
0.9664,0.0336	-2561.50
0.9908,0.0092	-2527.74
0.9924,0.0076	-2537.59
0.9957,0.0043	-2517.67
0.9954,0.0046	-2528.43
0.9682,0.0318	-2547.96
0.9702,0.0298	-2554.84
0.9896,0.0104	-2532.28
0.9916,0.0084	-2513.47
0.9949,0.0051	-2512.46
0.9942,0.0058	-2512.67
0.9735,0.0265	-2540.61
0.9686,0.0314	-2537.66
0.9901,0.0099	-2518.51
0.9895,0.0105	-2527.73
0.9942,0.0058	-2522.96
0.9932,0.0068	-2512.98
0.9709,0.0291	-2558.38
0.9612,0.0388	-2542.09
0.9869,0.0131	-2527.84
0.9888,0.0112	-2527.75
0.9940,0.0060	-2517.84
0.9927,0.0073	-2522.95
0.9631,0.0369	-2545.06
0.9590,0.0410	-2570.80
0.9877,0.0123	-2540.95
0.9928,0.0072	-2513.08
0.9934,0.0066	-2517.92
0.9929,0.0071	-2522.95
0.9590,0.0410	-2555.04
0.9546,0.0454	-2576.69
0.9897,0.0103	-2523.17
0.9925,0.0075	-2518.07
0.9932,0.0068	-2527.93
0.9934,0.0066	-2522.94
0.9562,0.0438	-2576.82
0.9706,0.0294	-2565.35
0.9850,0.0150	-2536.38
0.9939,0.0061	-2528.05
0.9935,0.0065	-2522.94
0.9937,0.0063	-2522.95
0.9637,0.0363	-2544.99
0.9714,0.0286	-2547.84
0.9829,0.0171	-2532.30
0.9954,0.0046	-2523.07
0.9908,0.0092	-2513.70
0.9923,0.0077	-2537.54
0.9714,0.0286	-2558.42
0.9786,0.0214	-2532.70
0.9833,0.0167	-2540.43
0.9944,0.0056	-2533.34
0.9915,0.0085	-2527.77
0.9935,0.0065	-2517.92
0.9771,0.0229	-2540.40
0.9812,0.0188	-2548.25
0.9876,0.0124	-2540.93
0.9948,0.0052	-2523.00
0.9914,0.0086	-2518.26
0.9934,0.0066	-2517.93
0.9779,0.0221	-2540.37
0.9802,0.0198	-2548.14
0.9869,0.0131	-2527.85
0.9946,0.0054	-2522.98
0.9927,0.0073	-2513.12
0.9935,0.0065	-2517.92
0.9722,0.0278	-2547.82
0.9817,0.0183	-2528.41
0.9833,0.0167	-2524.13
0.9919,0.0081	-2522.98
0.9921,0.0079	-2522.97
0.9949,0.0051	-2517.74
0.9682,0.0318	-2537.70
0.9796,0.0204	-2548.08
0.9799,0.0201	-2544.22
0.9927,0.0073	-2527.86
0.9927,0.0073	-2532.76
0.9936,0.0064	-2512.85
0.9707,0.0293	-2558.36
0.9818,0.0182	-2532.38
0.9823,0.0177	-2528.33
0.9926,0.0074	-2513.15
0.9941,0.0059	-2522.96
0.9936,0.0064	-2517.90
0.9691,0.0309	-2541.03
0.9838,0.0162	-2540.46
0.9863,0.0137	-2527.89
0.9922,0.0078	-2513.27
0.9948,0.0052	-2517.74
0.9943,0.0057	-2517.80
0.9678,0.0322	-2568.39
0.9801,0.0199	-2532.54
0.9848,0.0152	-2536.37
0.9936,0.0064	-2517.90
0.9938,0.0062	-2517.87
0.9927,0.0073	-2518.04
0.9720,0.0280	-2530.09
0.9815,0.0185	-2548.30
0.9835,0.0165	-2536.35
0.9947,0.0053	-2517.76
0.9917,0.0083	-2513.42
0.9910,0.0090	-2527.74
0.9733,0.0267	-2558.60
0.9841,0.0159	-2528.11
0.9828,0.0172	-2520.17
0.9949,0.0051	-2523.01
0.9944,0.0056	-2512.60
0.9888,0.0112	-2532.22
0.9693,0.0307	-2537.55
0.9831,0.0169	-2532.29
0.9835,0.0165	-2528.18
0.9949,0.0051	-2517.74
0.9940,0.0060	-2517.85
0.9856,0.0144	-2527.96
0.9754,0.0246	-2547.84
0.9828,0.0172	-2536.36
0.9853,0.0147	-2540.60
0.9953,0.0047	-2528.40
0.9942,0.0058	-2528.11
0.9854,0.0146	-2527.97
0.9744,0.0256	-2555.10
0.9836,0.0164	-2519.98
0.9828,0.0172	-2540.40
0.9946,0.0054	-2522.98
0.9937,0.0063	-2522.95
0.9818,0.0182	-2528.39
0.9671,0.0329	-2561.54
0.9818,0.0182	-2528.39
0.9867,0.0133	-2540.78
0.9931,0.0069	-2513.00
