#isoforms=['ENSG00000101294.SE.1.A.up_ENSG00000101294.SE.1.A.SE1_ENSG00000101294.SE.1.A.dn','ENSG00000101294.SE.1.B.up_ENSG00000101294.SE.1.B.dn']	exon_lens=('ENSG00000101294.SE.1.A.up',99),('ENSG00000101294.SE.1.A.SE1',376),('ENSG00000101294.SE.1.A.dn',89),('ENSG00000101294.SE.1.B.up',99),('ENSG00000101294.SE.1.B.dn',89)	iters=5000	burn_in=500	lag=10	percent_accept=90.79	proposal_type=drift	counts=(0,0):170,(0,1):1,(1,0):59,(1,1):83	assigned_counts=0:85,1:58	chrom=chr20	strand=+	mRNA_starts=31527484,31527484	mRNA_ends=31545035,31545035
sampled_psi	log_score
0.2158,0.7842	-915.53
0.3633,0.6367	-921.59
0.2754,0.7246	-916.87
0.3278,0.6722	-929.90
0.2823,0.7177	-918.82
0.3028,0.6972	-924.10
0.2291,0.7709	-921.12
0.4258,0.5742	-930.70
0.2677,0.7323	-917.83
0.3061,0.6939	-920.81
0.3020,0.6980	-923.27
0.2843,0.7157	-926.22
0.2416,0.7584	-917.09
0.4315,0.5685	-931.41
0.2796,0.7204	-913.13
0.2809,0.7191	-919.75
0.2868,0.7132	-924.32
0.2808,0.7192	-920.69
0.2452,0.7548	-908.01
0.4022,0.5978	-928.61
0.2973,0.7027	-923.29
0.2825,0.7175	-916.96
0.3053,0.6947	-924.91
0.3178,0.6822	-926.37
0.2899,0.7101	-932.32
0.4330,0.5670	-931.45
0.2891,0.7109	-925.17
0.2932,0.7068	-921.57
0.3079,0.6921	-922.46
0.2897,0.7103	-922.47
0.2461,0.7539	-919.23
0.4526,0.5474	-933.30
0.3018,0.6982	-927.46
0.3526,0.6474	-924.63
0.3270,0.6730	-925.59
0.2552,0.7448	-922.22
0.3324,0.6676	-923.52
0.4199,0.5801	-930.23
0.3332,0.6668	-921.45
0.3569,0.6431	-928.87
0.3118,0.6882	-920.11
0.2545,0.7455	-922.24
0.3432,0.6568	-925.06
0.3845,0.6155	-926.24
0.3369,0.6631	-922.26
0.3749,0.6251	-927.42
0.2783,0.7217	-915.95
0.2654,0.7346	-920.89
0.3015,0.6985	-917.39
0.3972,0.6028	-930.96
0.3003,0.6997	-918.20
0.3080,0.6920	-924.08
0.2268,0.7732	-913.89
0.2570,0.7430	-921.09
0.2567,0.7433	-924.29
0.4325,0.5675	-928.72
0.2889,0.7111	-920.67
0.3279,0.6721	-930.62
0.2366,0.7634	-909.02
0.2199,0.7801	-917.89
0.2709,0.7291	-914.85
0.4114,0.5886	-927.86
0.2825,0.7175	-926.28
0.3257,0.6743	-919.77
0.2687,0.7313	-918.83
0.2560,0.7440	-915.79
0.2873,0.7127	-923.40
0.3469,0.6531	-929.55
0.2925,0.7075	-922.45
0.2995,0.7005	-916.48
0.2833,0.7167	-919.75
0.2630,0.7370	-923.00
0.2856,0.7144	-922.51
0.3285,0.6715	-927.03
0.3219,0.6781	-923.36
0.3067,0.6933	-916.74
0.2450,0.7550	-913.64
0.3074,0.6926	-918.39
0.2510,0.7490	-914.72
0.3807,0.6193	-925.61
0.3096,0.6904	-928.08
0.2892,0.7108	-922.47
0.2675,0.7325	-915.81
0.3369,0.6631	-926.32
0.2557,0.7443	-915.79
0.3778,0.6222	-927.48
0.3409,0.6591	-926.34
0.2817,0.7183	-921.62
0.2555,0.7445	-922.21
0.3529,0.6471	-925.25
0.2848,0.7152	-929.88
0.3995,0.6005	-930.56
0.3282,0.6718	-923.45
0.3235,0.6765	-928.54
0.2218,0.7782	-914.03
0.3208,0.6792	-922.60
0.2676,0.7324	-915.81
0.3769,0.6231	-922.94
0.3713,0.6287	-925.76
0.3641,0.6359	-926.09
0.2548,0.7452	-922.23
0.3294,0.6706	-921.33
0.2644,0.7356	-922.96
0.3066,0.6934	-923.26
0.3498,0.6502	-924.56
0.3308,0.6692	-929.13
0.2616,0.7384	-915.78
0.3001,0.6999	-923.28
0.3168,0.6832	-917.16
0.3469,0.6531	-920.06
0.3851,0.6149	-928.60
0.3168,0.6832	-918.70
0.3036,0.6964	-919.94
0.2694,0.7306	-919.82
0.3180,0.6820	-922.56
0.3321,0.6679	-923.51
0.3161,0.6839	-922.53
0.3010,0.6990	-921.59
0.2776,0.7224	-919.76
0.2307,0.7693	-916.21
0.3234,0.6766	-922.64
0.3210,0.6790	-921.10
0.2975,0.7025	-920.71
0.3251,0.6749	-920.48
0.3040,0.6960	-920.78
0.2357,0.7643	-920.78
0.2972,0.7028	-925.87
0.2894,0.7106	-924.27
0.2731,0.7269	-918.81
0.2681,0.7319	-916.82
0.2864,0.7136	-913.37
0.2372,0.7628	-920.71
0.3113,0.6887	-925.66
0.2621,0.7379	-916.82
0.2480,0.7520	-921.39
0.2606,0.7394	-916.83
0.3237,0.6763	-921.91
0.2366,0.7634	-920.73
0.2856,0.7144	-916.09
0.2977,0.7023	-925.01
0.2741,0.7259	-917.83
0.2743,0.7257	-914.91
0.3169,0.6831	-924.85
0.2027,0.7973	-914.88
0.2411,0.7589	-922.83
0.2578,0.7422	-912.61
0.2514,0.7486	-915.81
0.2767,0.7233	-913.04
0.3001,0.6999	-919.89
0.2160,0.7840	-910.36
0.2128,0.7872	-916.98
0.2484,0.7516	-912.52
0.2214,0.7786	-912.78
0.2941,0.7059	-926.82
0.2798,0.7202	-914.08
0.1989,0.8011	-924.86
0.2039,0.7961	-916.17
0.2446,0.7554	-919.28
0.2586,0.7414	-916.84
0.2593,0.7407	-912.63
0.2648,0.7352	-917.84
0.2137,0.7863	-920.84
0.2108,0.7892	-914.45
0.2346,0.7654	-922.01
0.2550,0.7450	-913.65
0.2741,0.7259	-917.83
0.2753,0.7247	-921.71
0.2244,0.7756	-925.11
0.2306,0.7694	-917.42
0.2755,0.7245	-913.00
0.2755,0.7245	-932.34
0.2739,0.7261	-920.75
0.2579,0.7421	-910.50
0.2259,0.7741	-916.38
0.2327,0.7673	-910.19
0.2575,0.7425	-918.96
0.2781,0.7219	-922.62
0.2967,0.7033	-917.25
0.2546,0.7454	-916.87
0.2235,0.7765	-911.49
0.2729,0.7271	-919.79
0.2504,0.7496	-920.21
0.2842,0.7158	-926.22
0.2656,0.7344	-921.90
0.2805,0.7195	-916.93
0.2527,0.7473	-916.89
0.2916,0.7084	-923.34
0.2635,0.7365	-913.73
0.2464,0.7536	-918.10
0.3047,0.6953	-923.26
0.2755,0.7245	-913.97
0.2855,0.7145	-918.84
0.3311,0.6689	-921.39
0.2658,0.7342	-919.87
0.2446,0.7554	-919.27
0.3226,0.6774	-927.82
0.2764,0.7236	-917.84
0.3640,0.6360	-926.09
0.2916,0.7084	-924.23
0.2688,0.7312	-916.82
0.2539,0.7461	-923.34
0.3669,0.6331	-925.07
0.3095,0.6905	-920.86
0.3325,0.6675	-924.22
0.3519,0.6481	-929.50
0.2785,0.7215	-930.23
0.3013,0.6987	-924.95
0.3267,0.6733	-924.15
0.2733,0.7267	-924.67
0.3211,0.6789	-925.60
0.3351,0.6649	-922.20
0.3220,0.6780	-927.83
0.2759,0.7241	-916.87
0.2653,0.7347	-915.80
0.3092,0.6908	-921.66
0.2981,0.7019	-923.29
0.3391,0.6609	-923.66
0.3205,0.6795	-926.35
0.2567,0.7433	-915.79
0.2204,0.7796	-917.86
0.2656,0.7344	-916.82
0.2820,0.7180	-924.43
0.2827,0.7173	-920.68
0.2557,0.7443	-926.47
0.2363,0.7637	-926.62
0.2270,0.7730	-910.21
0.2455,0.7545	-917.00
0.3055,0.6945	-924.91
0.2768,0.7232	-924.57
0.2489,0.7511	-924.67
0.2140,0.7860	-918.21
0.2396,0.7604	-920.60
0.2683,0.7317	-914.82
0.2853,0.7147	-918.84
0.2368,0.7632	-912.53
0.2544,0.7456	-910.42
0.2170,0.7830	-911.63
0.2487,0.7513	-920.26
0.2585,0.7415	-922.11
0.2892,0.7108	-925.17
0.2160,0.7840	-924.55
0.2596,0.7404	-917.88
0.2608,0.7392	-925.16
0.2482,0.7518	-915.85
0.2673,0.7327	-917.83
0.2664,0.7336	-912.77
0.2394,0.7606	-914.83
0.2174,0.7826	-911.62
0.2346,0.7654	-914.92
0.2346,0.7654	-919.65
0.2516,0.7484	-919.08
0.2553,0.7447	-913.65
0.2319,0.7681	-914.98
0.2235,0.7765	-913.98
0.2890,0.7110	-918.87
0.1970,0.8030	-909.61
0.2584,0.7416	-914.73
0.2785,0.7215	-918.80
0.2604,0.7396	-923.09
0.2258,0.7742	-921.31
0.2349,0.7651	-917.27
0.1873,0.8127	-915.97
0.2646,0.7354	-921.93
0.2519,0.7481	-919.07
0.2503,0.7497	-919.11
0.2296,0.7704	-915.04
0.2036,0.7964	-920.27
0.1906,0.8094	-925.82
0.2591,0.7409	-914.73
0.3355,0.6645	-922.21
0.2429,0.7571	-918.19
0.2383,0.7617	-922.98
0.2051,0.7949	-913.39
0.2353,0.7647	-919.62
0.2926,0.7074	-922.45
0.3439,0.6561	-932.17
0.2423,0.7577	-920.49
0.2289,0.7711	-912.63
0.2284,0.7716	-915.07
0.2348,0.7652	-910.19
0.3009,0.6991	-917.37
0.3429,0.6571	-924.40
0.2740,0.7260	-920.75
0.2012,0.7988	-914.96
0.2301,0.7699	-913.82
0.2523,0.7477	-923.41
0.2903,0.7097	-914.42
0.3242,0.6758	-924.86
0.3155,0.6845	-923.30
0.2124,0.7876	-915.69
0.2528,0.7472	-916.89
0.2826,0.7174	-908.57
0.3084,0.6916	-920.04
0.2914,0.7086	-913.57
0.3194,0.6806	-922.58
0.2550,0.7450	-910.43
0.2966,0.7034	-928.48
0.2525,0.7475	-914.72
0.2868,0.7132	-917.03
0.2865,0.7135	-919.76
0.3045,0.6955	-927.39
0.2519,0.7481	-921.25
0.2973,0.7027	-924.15
0.2607,0.7393	-919.95
0.2791,0.7209	-921.65
0.2748,0.7252	-924.62
0.3349,0.6651	-925.63
0.2232,0.7768	-916.48
0.3252,0.6748	-928.51
0.2811,0.7189	-921.63
0.2091,0.7909	-918.52
0.2745,0.7255	-922.69
0.3069,0.6931	-915.12
0.2340,0.7660	-913.74
0.3262,0.6738	-922.69
0.2753,0.7247	-919.77
0.2627,0.7373	-919.92
0.2860,0.7140	-921.59
0.3131,0.6869	-922.50
0.2380,0.7620	-910.20
0.3115,0.6885	-923.28
0.2809,0.7191	-918.81
0.2633,0.7367	-921.96
0.2979,0.7021	-919.86
0.3324,0.6676	-924.22
0.2657,0.7343	-916.82
0.3125,0.6875	-924.07
0.2409,0.7591	-917.10
0.2646,0.7354	-925.00
0.4150,0.5850	-928.03
0.3031,0.6969	-927.43
0.2557,0.7443	-915.79
0.2487,0.7513	-922.47
0.2642,0.7358	-911.70
0.2598,0.7402	-922.07
0.4126,0.5874	-930.74
0.3317,0.6683	-924.91
0.2913,0.7087	-917.12
0.2510,0.7490	-919.10
0.2399,0.7601	-915.98
0.3214,0.6786	-923.35
0.4187,0.5813	-930.85
0.3410,0.6590	-925.68
0.2471,0.7529	-921.43
0.2423,0.7577	-913.65
0.2850,0.7150	-917.00
0.3433,0.6567	-927.65
0.4189,0.5811	-930.53
0.3575,0.6425	-927.12
0.2086,0.7914	-911.89
0.2759,0.7241	-920.73
0.2771,0.7229	-921.68
0.2833,0.7167	-917.90
0.4436,0.5564	-931.48
0.3422,0.6578	-923.08
0.2121,0.7879	-907.83
0.2663,0.7337	-918.85
0.2798,0.7202	-921.64
0.3156,0.6844	-922.53
0.4368,0.5632	-931.03
0.3294,0.6706	-922.75
0.2147,0.7853	-914.28
0.2736,0.7264	-925.64
0.2916,0.7084	-918.02
0.3154,0.6846	-919.42
0.4495,0.5505	-931.07
0.3742,0.6258	-928.94
0.1957,0.8043	-913.91
0.3231,0.6769	-916.72
0.2924,0.7076	-924.22
0.3058,0.6942	-923.26
0.3406,0.6594	-931.62
0.3617,0.6383	-926.03
0.2099,0.7901	-913.17
0.2829,0.7171	-913.24
0.3162,0.6838	-929.47
0.3163,0.6837	-926.39
0.3292,0.6708	-924.18
0.3334,0.6666	-923.54
0.1952,0.8048	-916.77
0.3448,0.6552	-927.65
0.3690,0.6310	-928.37
0.3214,0.6786	-919.62
0.3527,0.6473	-920.99
0.3608,0.6392	-922.01
0.2126,0.7874	-915.68
0.2631,0.7369	-924.03
0.3485,0.6515	-923.90
0.2605,0.7395	-921.00
0.3348,0.6652	-924.25
0.3364,0.6636	-918.84
0.2401,0.7599	-911.36
0.2651,0.7349	-925.99
0.3354,0.6646	-926.31
0.2552,0.7448	-923.29
0.3355,0.6645	-922.21
0.3232,0.6768	-923.38
0.2594,0.7406	-922.08
0.2364,0.7636	-919.57
0.2876,0.7124	-922.49
0.2612,0.7388	-918.90
0.2716,0.7284	-915.85
0.3770,0.6230	-928.97
0.2819,0.7181	-920.69
0.2467,0.7533	-920.33
0.2863,0.7137	-917.93
0.2788,0.7212	-916.90
0.3018,0.6982	-919.08
0.3610,0.6390	-925.45
0.2689,0.7311	-918.83
0.2430,0.7570	-923.87
0.2512,0.7488	-912.54
0.2716,0.7284	-918.81
0.2984,0.7016	-921.57
0.3310,0.6690	-921.38
0.3099,0.6901	-916.87
0.2433,0.7567	-917.05
0.2653,0.7347	-916.82
0.3013,0.6987	-917.38
0.3323,0.6677	-924.91
0.3801,0.6199	-928.51
0.2479,0.7521	-920.29
0.2664,0.7336	-916.82
0.2540,0.7460	-921.18
0.2919,0.7081	-917.14
0.3026,0.6974	-929.11
0.3083,0.6917	-922.46
0.2239,0.7761	-911.48
0.2467,0.7533	-920.33
0.2919,0.7081	-924.22
0.2622,0.7378	-916.82
0.3194,0.6806	-930.90
0.3164,0.6836	-925.62
0.2934,0.7066	-918.93
0.2704,0.7296	-924.77
0.3015,0.6985	-919.91
0.3303,0.6697	-924.90
0.2679,0.7321	-926.88
0.3767,0.6233	-927.46
0.2782,0.7218	-921.66
0.2941,0.7059	-920.69
0.2963,0.7037	-925.03
0.3127,0.6873	-918.56
0.2479,0.7521	-923.62
0.3376,0.6624	-925.65
0.2500,0.7500	-915.83
0.3226,0.6774	-921.88
0.2996,0.7004	-924.98
0.3416,0.6584	-923.06
0.2388,0.7612	-916.00
0.3524,0.6476	-923.41
0.2420,0.7580	-911.37
0.2669,0.7331	-918.84
0.2524,0.7476	-917.98
0.3609,0.6391	-927.16
0.2538,0.7462	-912.56
0.3062,0.6938	-921.63
0.2607,0.7393	-922.04
0.2662,0.7338	-920.87
0.2523,0.7477	-914.72
0.3340,0.6660	-925.62
0.2634,0.7366	-920.93
0.3116,0.6884	-921.69
0.2407,0.7593	-918.26
0.2616,0.7384	-916.82
0.2410,0.7590	-919.40
0.3329,0.6671	-924.22
0.2147,0.7853	-918.17
0.3177,0.6823	-926.37
0.2496,0.7504	-919.13
0.2321,0.7679	-917.37
0.2662,0.7338	-914.79
0.3480,0.6520	-925.77
0.1765,0.8235	-910.84
0.3399,0.6601	-929.65
0.2561,0.7439	-922.19
0.2208,0.7792	-926.67
0.2854,0.7146	-916.09
0.3364,0.6636	-924.28
0.2202,0.7798	-914.08
0.3140,0.6860	-927.98
0.2787,0.7213	-916.90
0.2432,0.7568	-915.91
0.2949,0.7051	-929.41
0.3538,0.6462	-927.07
0.2437,0.7563	-914.77
0.2894,0.7106	-927.86
0.2729,0.7271	-922.73
0.2836,0.7164	-916.05
0.2626,0.7374	-917.85
0.3667,0.6333	-922.34
0.2272,0.7728	-912.66
0.2957,0.7043	-920.70
0.2661,0.7339	-922.90
0.3040,0.6960	-923.26
0.2415,0.7585	-923.95
0.3538,0.6462	-926.47
0.2782,0.7218	-920.71
0.3074,0.6926	-925.70
0.2623,0.7377	-926.13
0.2721,0.7279	-920.78
0.2454,0.7546	-918.13
0.3350,0.6650	-923.57
0.3052,0.6948	-919.97
0.2583,0.7417	-918.95
0.2326,0.7674	-910.19
0.2951,0.7049	-920.70
0.2298,0.7702	-908.98
0.3136,0.6864	-919.37
0.3222,0.6778	-922.62
0.2578,0.7422	-923.18
0.2224,0.7776	-916.52
0.2703,0.7297	-916.83
0.2174,0.7826	-925.71
0.2801,0.7199	-920.70
0.3328,0.6672	-922.14
0.2530,0.7470	-923.38
0.2412,0.7588	-915.95
0.2384,0.7616	-912.52
0.2602,0.7398	-921.01
0.2930,0.7070	-925.97
0.3200,0.6800	-922.59
0.2483,0.7517	-915.84
0.2846,0.7154	-916.07
0.2320,0.7680	-916.17
0.2712,0.7288	-919.80
0.2745,0.7255	-922.69
0.3327,0.6673	-920.05
0.2662,0.7338	-920.87
0.3061,0.6939	-928.18
0.2482,0.7518	-914.74
0.2954,0.7046	-921.57
0.2801,0.7199	-917.86
0.3423,0.6577	-922.43
0.2498,0.7502	-919.13
0.2959,0.7041	-921.57
0.2325,0.7675	-918.55
0.3078,0.6922	-919.21
0.2782,0.7218	-921.66
0.3358,0.6642	-925.63
0.3099,0.6901	-924.07
0.2936,0.7064	-918.05
0.2460,0.7540	-913.63
0.2478,0.7522	-920.29
0.3342,0.6658	-921.49
0.3325,0.6675	-924.92
0.2336,0.7664	-922.06
0.3208,0.6792	-921.85
0.2142,0.7858	-915.60
0.2246,0.7754	-922.62
0.3487,0.6513	-922.03
0.2793,0.7207	-917.86
0.2603,0.7397	-919.96
0.2952,0.7048	-927.66
0.2523,0.7477	-916.89
0.2464,0.7536	-915.87
0.2928,0.7072	-923.33
0.2974,0.7026	-924.15
0.2453,0.7547	-920.38
0.3030,0.6970	-919.10
0.2616,0.7384	-917.86
0.2542,0.7458	-919.02
0.2714,0.7286	-920.79
0.2332,0.7668	-918.52
0.2723,0.7277	-930.60
0.3437,0.6563	-921.83
0.2816,0.7184	-922.56
0.3029,0.6971	-919.93
0.2354,0.7646	-916.08
0.2202,0.7798	-920.40
0.3291,0.6709	-919.19
0.3775,0.6225	-927.47
0.2907,0.7093	-916.22
0.2650,0.7350	-917.84
0.2206,0.7794	-911.54
0.2337,0.7663	-920.88
0.3416,0.6584	-926.34
0.4332,0.5668	-930.11
0.2812,0.7188	-916.94
0.2818,0.7182	-917.88
0.2671,0.7329	-920.86
0.2931,0.7069	-921.57
0.2717,0.7283	-913.88
0.4527,0.5473	-931.59
0.3004,0.6996	-925.81
0.2790,0.7210	-919.76
0.2814,0.7186	-928.19
0.2303,0.7697	-919.84
0.2602,0.7398	-916.83
0.4159,0.5841	-928.08
0.3427,0.6573	-919.19
0.2614,0.7386	-913.71
0.2680,0.7320	-919.84
0.2993,0.7007	-919.88
0.2910,0.7090	-919.79
0.3603,0.6397	-926.00
0.3622,0.6378	-928.88
0.2876,0.7124	-927.02
0.2835,0.7165	-917.90
0.3298,0.6702	-918.51
0.3090,0.6910	-916.83
0.3062,0.6938	-927.35
0.3230,0.6770	-916.71
0.3243,0.6757	-925.59
0.2891,0.7109	-917.97
0.2943,0.7057	-916.32
0.3249,0.6751	-922.67
0.3233,0.6767	-919.68
0.3588,0.6412	-921.33
0.3135,0.6865	-927.99
0.2274,0.7726	-912.65
0.2616,0.7384	-916.82
0.3198,0.6802	-929.37
0.2990,0.7010	-916.46
0.3503,0.6497	-924.57
0.3286,0.6714	-918.45
0.2307,0.7693	-913.80
0.3078,0.6922	-920.02
0.3286,0.6714	-923.45
0.3221,0.6779	-921.87
0.2998,0.7002	-924.97
0.3212,0.6788	-922.60
0.2528,0.7472	-915.80
0.2862,0.7138	-920.67
0.3038,0.6962	-924.09
0.3249,0.6751	-924.13
0.3445,0.6555	-919.29
0.2588,0.7412	-926.30
0.2879,0.7121	-927.01
0.2616,0.7384	-928.23
0.2919,0.7081	-917.14
0.2851,0.7149	-924.35
0.3377,0.6623	-920.93
0.2963,0.7037	-920.70
0.2607,0.7393	-922.04
0.2879,0.7121	-917.96
0.2987,0.7013	-917.31
0.2972,0.7028	-924.15
0.2884,0.7116	-923.38
0.2672,0.7328	-916.82
0.2572,0.7428	-916.85
0.2582,0.7418	-916.84
0.2836,0.7164	-917.90
0.3071,0.6929	-916.75
0.2784,0.7216	-909.28
0.2992,0.7008	-920.73
0.2649,0.7351	-918.86
0.2498,0.7502	-913.63
0.2806,0.7194	-928.23
0.3302,0.6698	-923.48
0.2686,0.7314	-926.84
0.2910,0.7090	-922.46
0.2400,0.7600	-917.13
0.2732,0.7268	-922.72
0.2194,0.7806	-916.64
0.3584,0.6416	-926.54
0.2912,0.7088	-922.46
0.2791,0.7209	-918.81
0.2610,0.7390	-920.99
0.2679,0.7321	-918.83
0.2180,0.7820	-915.43
0.3054,0.6946	-927.37
0.3009,0.6991	-926.64
0.2576,0.7424	-921.08
0.2297,0.7703	-913.82
0.2804,0.7196	-919.75
0.2355,0.7645	-918.43
0.2938,0.7062	-918.06
0.3087,0.6913	-925.69
0.2660,0.7340	-921.89
0.2387,0.7613	-917.16
0.2881,0.7119	-922.48
0.3003,0.6997	-916.51
0.2564,0.7436	-915.79
0.3069,0.6931	-926.52
0.2781,0.7219	-918.80
0.2324,0.7676	-917.35
0.2608,0.7392	-923.08
0.2591,0.7409	-913.68
0.2158,0.7842	-920.69
0.2520,0.7480	-917.99
0.2821,0.7179	-912.28
0.2336,0.7664	-922.06
0.2830,0.7170	-917.89
0.3002,0.6998	-921.58
0.2374,0.7626	-917.20
0.2867,0.7133	-922.50
0.3451,0.6549	-925.73
0.2550,0.7450	-923.30
0.3041,0.6959	-917.47
0.2727,0.7273	-913.90
0.2348,0.7652	-913.73
0.3043,0.6957	-926.57
0.3600,0.6400	-924.27
0.2525,0.7475	-925.57
0.2722,0.7278	-913.89
0.2767,0.7233	-923.61
0.2142,0.7858	-916.91
0.2886,0.7114	-917.97
0.3534,0.6466	-924.65
0.2718,0.7282	-915.85
0.3015,0.6985	-923.27
0.2736,0.7264	-921.73
0.2287,0.7713	-908.98
0.2918,0.7082	-918.02
0.3224,0.6776	-921.88
0.2901,0.7099	-927.83
0.2532,0.7468	-915.80
0.3064,0.6936	-922.45
0.2642,0.7358	-914.77
0.3254,0.6746	-920.49
0.2675,0.7325	-919.84
0.2968,0.7032	-919.84
0.2698,0.7302	-917.82
0.2960,0.7040	-920.70
0.2676,0.7324	-917.83
0.2913,0.7087	-918.01
0.2636,0.7364	-918.87
0.2980,0.7020	-919.00
0.3031,0.6969	-920.77
0.2967,0.7033	-923.30
0.2894,0.7106	-916.18
0.2779,0.7221	-925.49
0.2730,0.7270	-924.68
0.2692,0.7308	-911.83
0.3214,0.6786	-923.35
0.2884,0.7116	-919.77
0.2461,0.7539	-906.91
0.2812,0.7188	-919.75
0.2324,0.7676	-917.36
0.2765,0.7235	-918.80
0.3531,0.6469	-921.62
0.3079,0.6921	-924.08
0.2577,0.7423	-917.90
0.2869,0.7131	-920.67
0.2736,0.7264	-918.80
0.3250,0.6750	-924.86
0.3759,0.6241	-926.42
0.3032,0.6968	-918.27
0.2465,0.7535	-918.10
0.3214,0.6786	-924.85
0.2737,0.7263	-916.85
0.2953,0.7047	-918.09
0.3492,0.6508	-922.68
0.2919,0.7081	-920.68
0.2278,0.7722	-910.20
0.3113,0.6887	-922.48
0.2855,0.7145	-919.76
0.2855,0.7145	-915.17
0.2882,0.7118	-918.87
0.2591,0.7409	-918.93
0.2496,0.7504	-915.83
0.3164,0.6836	-919.45
0.2425,0.7575	-913.65
0.2849,0.7151	-923.44
0.3330,0.6670	-928.39
0.2595,0.7405	-927.32
0.2824,0.7176	-919.75
0.2966,0.7034	-920.71
0.2558,0.7442	-909.38
0.2735,0.7265	-915.87
0.3771,0.6229	-928.47
0.3067,0.6933	-925.71
0.3486,0.6514	-927.03
0.2590,0.7410	-922.09
0.2925,0.7075	-918.03
0.2385,0.7615	-918.33
0.3305,0.6695	-925.60
0.3371,0.6629	-922.26
0.3620,0.6380	-928.31
0.2376,0.7624	-917.19
0.3665,0.6335	-926.15
0.2796,0.7204	-927.33
0.3093,0.6907	-923.27
0.3130,0.6870	-919.35
0.3590,0.6410	-923.08
0.2320,0.7680	-908.99
0.3286,0.6714	-921.31
0.2743,0.7257	-920.75
0.3111,0.6889	-922.48
0.3016,0.6984	-915.71
0.3472,0.6528	-922.60
0.2265,0.7735	-910.21
0.3375,0.6625	-920.25
0.2827,0.7173	-925.34
0.3525,0.6475	-925.85
0.2844,0.7156	-922.52
0.3323,0.6677	-924.91
0.2324,0.7676	-917.36
0.3816,0.6184	-930.47
0.2872,0.7128	-919.76
0.3368,0.6632	-926.32
0.2887,0.7113	-920.67
0.3146,0.6854	-927.97
0.2236,0.7764	-920.20
0.3249,0.6751	-915.35
0.2727,0.7273	-914.88
0.3574,0.6426	-923.01
0.2991,0.7009	-923.28
0.3160,0.6840	-914.81
0.1888,0.8112	-907.10
0.3110,0.6890	-921.68
0.2739,0.7261	-920.75
0.3427,0.6573	-927.65
0.2875,0.7125	-923.40
0.2789,0.7211	-921.65
0.2088,0.7912	-918.55
0.3546,0.6454	-930.68
0.3232,0.6768	-923.38
0.3486,0.6514	-924.53
0.2707,0.7293	-919.81
0.2669,0.7331	-922.88
0.2331,0.7669	-918.52
0.4059,0.5941	-928.36
0.3348,0.6652	-925.63
0.3278,0.6722	-924.16
0.2892,0.7108	-917.98
0.2843,0.7157	-916.06
0.2286,0.7714	-917.50
0.3683,0.6317	-926.74
0.3612,0.6388	-924.32
0.3809,0.6191	-923.67
0.3486,0.6514	-923.28
0.2831,0.7169	-927.18
0.2635,0.7365	-919.90
0.3131,0.6869	-922.50
0.3016,0.6984	-920.75
0.3438,0.6562	-930.24
0.3249,0.6751	-926.32
0.2882,0.7118	-921.58
0.2845,0.7155	-920.68
0.2916,0.7084	-918.02
0.3365,0.6635	-926.32
0.3091,0.6909	-923.27
0.2818,0.7182	-921.62
0.2789,0.7211	-908.36
0.3015,0.6985	-919.07
0.2821,0.7179	-926.29
0.3107,0.6893	-917.69
0.3005,0.6995	-913.14
0.2807,0.7193	-925.40
0.2933,0.7067	-918.05
0.2790,0.7210	-915.96
0.2750,0.7250	-920.74
0.3268,0.6732	-918.36
0.2510,0.7490	-924.56
0.2760,0.7240	-924.59
0.2568,0.7432	-917.91
0.2652,0.7348	-915.80
0.2947,0.7053	-923.31
0.3124,0.6876	-924.07
0.2687,0.7313	-912.82
0.2696,0.7304	-918.82
0.2584,0.7416	-925.27
0.2301,0.7699	-916.23
0.2324,0.7676	-913.77
0.2993,0.7007	-919.88
0.2426,0.7574	-926.17
0.2743,0.7257	-924.64
0.3015,0.6985	-929.15
0.2047,0.7953	-920.19
0.2057,0.7943	-920.11
0.3451,0.6549	-927.01
0.2555,0.7445	-914.72
0.2558,0.7442	-910.45
0.2984,0.7016	-920.72
0.2065,0.7935	-910.63
0.2332,0.7668	-913.76
0.3470,0.6530	-929.55
0.2777,0.7223	-923.58
0.2709,0.7291	-919.80
0.2750,0.7250	-912.99
0.2270,0.7730	-915.11
0.2519,0.7481	-917.99
0.3505,0.6495	-933.21
0.3333,0.6667	-922.15
0.2669,0.7331	-910.76
0.2916,0.7084	-920.68
0.2518,0.7482	-924.52
0.2168,0.7832	-919.34
0.3282,0.6718	-927.03
0.3477,0.6523	-926.40
0.2805,0.7195	-919.75
0.3299,0.6701	-924.89
0.2665,0.7335	-928.97
0.2220,0.7780	-917.78
0.2794,0.7206	-919.75
0.3724,0.6276	-925.79
0.2635,0.7365	-918.87
0.3557,0.6443	-927.09
0.2869,0.7131	-921.58
0.2385,0.7615	-916.01
0.3001,0.6999	-915.65
0.3536,0.6464	-921.64
0.2684,0.7316	-933.87
0.3326,0.6674	-927.01
0.3045,0.6955	-919.13
0.2517,0.7483	-912.54
0.2789,0.7211	-919.76
0.3263,0.6737	-921.97
0.2499,0.7501	-910.33
0.3276,0.6724	-922.72
0.2968,0.7032	-919.84
0.2637,0.7363	-928.11
0.2481,0.7519	-913.63
0.2962,0.7038	-927.63
0.3379,0.6621	-923.63
0.3520,0.6480	-927.06
0.3050,0.6950	-920.79
0.2235,0.7765	-911.49
0.2744,0.7256	-913.94
0.3628,0.6372	-926.62
0.3318,0.6682	-922.81
0.3345,0.6655	-923.56
0.3248,0.6752	-924.13
0.1798,0.8202	-913.62
0.2953,0.7047	-917.22
0.3602,0.6398	-924.28
0.3282,0.6718	-924.88
0.3422,0.6578	-926.35
0.3688,0.6312	-926.75
0.1893,0.8107	-914.35
0.2862,0.7138	-924.33
0.3326,0.6674	-925.61
0.3510,0.6490	-922.13
0.3297,0.6703	-917.80
0.3681,0.6319	-927.28
0.2219,0.7781	-916.54
0.2835,0.7165	-923.46
0.3394,0.6606	-923.67
0.3044,0.6956	-922.44
0.3446,0.6554	-922.51
0.3098,0.6902	-917.66
0.2446,0.7554	-918.15
0.2783,0.7217	-918.80
0.3540,0.6460	-929.48
0.2701,0.7299	-920.81
0.3360,0.6640	-923.59
0.3448,0.6552	-928.29
0.2413,0.7587	-914.80
0.2971,0.7029	-924.15
0.2972,0.7028	-925.87
0.2338,0.7662	-919.68
0.3168,0.6832	-924.85
0.3021,0.6979	-928.29
0.2461,0.7539	-913.63
0.2578,0.7422	-922.13
0.2437,0.7563	-923.83
0.2663,0.7337	-914.79
0.3089,0.6911	-922.46
0.3190,0.6810	-923.33
0.2038,0.7962	-917.54
0.2407,0.7593	-919.40
0.2345,0.7655	-917.28
0.2730,0.7270	-914.89
0.2642,0.7358	-921.94
0.2855,0.7145	-919.76
0.2011,0.7989	-919.11
0.2460,0.7540	-919.23
0.2176,0.7824	-920.57
0.2935,0.7065	-925.96
0.2805,0.7195	-924.46
0.2886,0.7114	-923.38
0.2051,0.7949	-913.39
0.2782,0.7218	-920.71
0.2445,0.7555	-922.66
0.3349,0.6651	-926.31
0.3026,0.6974	-921.60
0.2524,0.7476	-915.81
0.2455,0.7545	-913.63
0.3241,0.6759	-922.65
0.2789,0.7211	-917.86
0.3550,0.6450	-925.29
0.3174,0.6826	-926.38
0.2824,0.7176	-926.28
0.2728,0.7272	-921.75
0.3159,0.6841	-918.67
0.2703,0.7297	-919.81
0.3627,0.6373	-923.81
0.3504,0.6496	-925.81
0.3186,0.6814	-919.52
0.3052,0.6948	-924.09
0.3413,0.6587	-928.97
0.2292,0.7708	-918.69
0.3693,0.6307	-925.16
0.3219,0.6781	-917.40
0.2988,0.7012	-920.72
0.2765,0.7235	-913.03
0.3399,0.6601	-921.02
0.2292,0.7708	-916.26
0.4107,0.5893	-928.90
0.2724,0.7276	-920.77
0.2860,0.7140	-918.84
0.2233,0.7767	-911.49
0.3312,0.6688	-926.31
0.2580,0.7420	-918.95
0.3689,0.6311	-923.53
0.3165,0.6835	-917.15
0.2865,0.7135	-923.41
0.1670,0.8330	-910.07
0.3331,0.6669	-926.31
0.2607,0.7393	-919.95
0.3295,0.6705	-924.89
0.3262,0.6738	-921.24
0.2899,0.7101	-919.78
0.2157,0.7843	-912.95
0.3068,0.6932	-920.00
0.2952,0.7048	-919.83
0.2966,0.7034	-912.07
0.3159,0.6841	-920.98
0.2961,0.7039	-925.03
0.2566,0.7434	-917.91
0.3082,0.6918	-922.46
0.2895,0.7105	-918.88
0.2970,0.7030	-925.02
0.3464,0.6536	-925.75
0.2983,0.7017	-916.44
0.2737,0.7263	-920.76
0.2782,0.7218	-923.57
0.2974,0.7026	-917.27
0.3244,0.6756	-918.99
0.2998,0.7002	-918.19
0.3340,0.6660	-920.10
0.2429,0.7571	-915.92
0.3021,0.6979	-917.41
0.2838,0.7162	-920.68
0.2616,0.7384	-916.82
0.3290,0.6710	-927.74
0.3538,0.6462	-929.48
0.2566,0.7434	-913.66
0.3093,0.6907	-920.86
0.2687,0.7313	-917.83
0.2461,0.7539	-923.71
0.2871,0.7129	-927.95
0.3802,0.6198	-924.61
0.2437,0.7563	-922.70
0.3424,0.6576	-926.35
0.2915,0.7085	-928.67
0.2429,0.7571	-918.19
0.3164,0.6836	-920.99
0.3792,0.6208	-926.04
0.2598,0.7402	-919.97
0.3289,0.6711	-921.32
0.2887,0.7113	-917.97
0.2723,0.7277	-914.88
0.3168,0.6832	-925.61
0.3434,0.6566	-928.95
0.2936,0.7064	-922.44
0.3426,0.6574	-919.83
0.2854,0.7146	-919.76
0.2547,0.7453	-909.35
0.3099,0.6901	-920.87
0.3286,0.6714	-925.60
0.3083,0.6917	-924.88
0.3559,0.6441	-925.32
0.3281,0.6719	-928.46
0.2657,0.7343	-919.87
0.2774,0.7226	-914.01
0.3504,0.6496	-923.96
0.3343,0.6657	-923.56
0.3045,0.6955	-917.48
0.3522,0.6478	-928.28
0.2879,0.7121	-915.24
0.2692,0.7308	-926.81
0.3091,0.6909	-920.05
0.3858,0.6142	-930.01
0.2893,0.7107	-923.37
0.3410,0.6590	-928.32
0.2724,0.7276	-915.86
0.2604,0.7396	-922.05
0.3332,0.6668	-921.45
0.3217,0.6783	-920.37
0.3144,0.6856	-924.85
0.3051,0.6949	-920.79
0.2902,0.7098	-919.78
0.2705,0.7295	-921.79
0.2896,0.7104	-928.75
0.3099,0.6901	-919.27
0.3370,0.6630	-922.26
0.3308,0.6692	-918.56
0.3031,0.6969	-927.43
0.2788,0.7212	-913.10
0.2792,0.7208	-917.86
0.2845,0.7155	-921.60
0.3023,0.6977	-921.60
0.2879,0.7121	-917.96
0.3108,0.6892	-923.27
0.3033,0.6967	-916.61
0.3424,0.6576	-927.00
0.2989,0.7011	-918.17
0.2995,0.7005	-921.58
0.3267,0.6733	-925.59
0.2911,0.7089	-920.68
0.3159,0.6841	-917.12
0.3581,0.6419	-924.20
0.2931,0.7069	-917.16
0.3339,0.6661	-920.09
0.3341,0.6659	-923.55
0.2740,0.7260	-918.80
0.3704,0.6296	-922.02
0.3467,0.6533	-927.65
0.3324,0.6676	-922.12
0.3431,0.6569	-925.05
0.2987,0.7013	-926.70
0.2780,0.7220	-916.90
0.3529,0.6471	-924.64
0.3471,0.6529	-926.39
0.3186,0.6814	-924.08
0.3503,0.6497	-927.04
0.2973,0.7027	-924.15
0.2724,0.7276	-921.76
0.3198,0.6802	-927.11
0.3357,0.6643	-924.95
0.3073,0.6927	-922.45
0.2848,0.7152	-926.20
0.2687,0.7313	-910.82
0.3109,0.6891	-924.87
0.2999,0.7001	-914.80
0.3384,0.6616	-927.00
0.2319,0.7681	-918.57
0.3208,0.6792	-927.85
0.2519,0.7481	-916.90
0.2956,0.7044	-925.91
0.3357,0.6643	-923.58
0.2800,0.7200	-915.03
0.2316,0.7684	-916.18
0.2996,0.7004	-922.43
0.2779,0.7221	-921.67
0.2848,0.7152	-914.23
0.3297,0.6703	-919.22
0.2469,0.7531	-918.09
0.2390,0.7610	-917.15
0.3607,0.6393	-927.16
0.2412,0.7588	-919.39
0.2943,0.7057	-920.69
0.3152,0.6848	-920.97
0.2809,0.7191	-916.93
0.2821,0.7179	-923.49
0.3569,0.6431	-921.81
0.2522,0.7478	-911.46
0.3010,0.6990	-920.74
0.2834,0.7166	-926.25
0.2643,0.7357	-918.87
0.2473,0.7527	-914.74
0.3596,0.6404	-928.30
0.2613,0.7387	-917.86
0.2372,0.7628	-916.03
0.3254,0.6746	-927.05
0.2653,0.7347	-915.80
0.2849,0.7151	-923.44
0.3420,0.6580	-923.73
0.2682,0.7318	-907.79
0.2190,0.7810	-915.39
0.3185,0.6815	-918.00
0.2313,0.7687	-914.99
0.3379,0.6621	-920.94
0.3572,0.6428	-925.94
0.2628,0.7372	-926.10
0.2539,0.7461	-920.11
0.3079,0.6921	-924.89
0.2558,0.7442	-922.20
0.3245,0.6755	-921.19
0.3330,0.6670	-926.31
0.2158,0.7842	-918.11
0.2483,0.7517	-915.84
0.2801,0.7199	-914.09
0.2410,0.7590	-913.66
0.3281,0.6719	-922.73
0.3002,0.6998	-922.43
0.2070,0.7930	-914.64
0.2388,0.7612	-924.11
0.2533,0.7467	-917.96
0.2298,0.7702	-911.40
0.3477,0.6523	-925.14
0.3414,0.6586	-921.74
0.2193,0.7807	-912.84
0.2527,0.7473	-920.14
0.2536,0.7464	-920.12
0.2364,0.7636	-914.88
0.3164,0.6836	-922.53
0.3314,0.6686	-925.61
0.2619,0.7381	-928.22
0.2955,0.7045	-920.70
0.3128,0.6872	-917.77
0.2689,0.7311	-914.82
0.3341,0.6659	-926.31
0.3309,0.6691	-929.13
0.2876,0.7124	-924.30
0.3174,0.6826	-923.31
0.3262,0.6738	-916.88
0.2782,0.7218	-924.52
0.3255,0.6745	-915.39
0.3224,0.6776	-923.37
0.3029,0.6971	-927.43
0.2752,0.7248	-922.68
0.3387,0.6613	-917.63
0.2847,0.7153	-919.76
0.3140,0.6860	-929.54
0.3070,0.6930	-914.31
0.2889,0.7111	-918.87
0.3468,0.6532	-928.92
0.3434,0.6566	-928.95
0.2437,0.7563	-923.83
0.3084,0.6916	-924.88
0.3110,0.6890	-922.48
0.2875,0.7125	-922.49
0.3339,0.6661	-929.76
0.3015,0.6985	-924.11
0.2785,0.7215	-920.71
0.2976,0.7024	-925.01
0.3312,0.6688	-929.82
0.2424,0.7576	-918.21
0.3102,0.6898	-916.88
0.3353,0.6647	-920.16
0.2919,0.7081	-927.77
0.3368,0.6632	-924.29
0.3260,0.6740	-923.41
0.2574,0.7426	-920.02
0.3508,0.6492	-927.05
0.2813,0.7187	-918.81
0.2972,0.7028	-922.43
0.3443,0.6557	-923.14
0.3263,0.6737	-919.79
0.2672,0.7328	-913.79
0.3892,0.6108	-928.24
0.2718,0.7282	-919.80
0.2889,0.7111	-924.28
0.3527,0.6473	-922.21
0.3005,0.6995	-925.81
0.3053,0.6947	-918.33
0.3498,0.6502	-925.80
0.2738,0.7262	-925.63
0.2964,0.7036	-918.98
0.3252,0.6748	-924.13
0.3061,0.6939	-922.45
0.3038,0.6962	-922.44
0.3384,0.6616	-925.65
0.2922,0.7078	-920.68
0.2835,0.7165	-916.04
0.3809,0.6191	-924.64
0.2544,0.7456	-915.79
0.3442,0.6558	-925.07
0.3613,0.6387	-930.01
0.3125,0.6875	-925.65
0.2842,0.7158	-915.14
0.3777,0.6223	-930.97
0.2982,0.7018	-919.86
0.4161,0.5839	-928.09
0.3201,0.6799	-921.83
0.2368,0.7632	-917.21
0.2506,0.7494	-919.11
0.3752,0.6248	-925.38
0.3164,0.6836	-918.69
0.4318,0.5682	-930.32
0.2957,0.7043	-922.44
0.2691,0.7309	-917.82
0.2305,0.7695	-910.19
0.3745,0.6255	-925.87
0.3533,0.6467	-927.67
0.5043,0.4957	-934.09
0.2927,0.7073	-919.80
0.3275,0.6725	-920.56
0.2382,0.7618	-917.17
0.3174,0.6826	-923.31
0.3724,0.6276	-924.75
0.5105,0.4895	-934.18
0.2622,0.7378	-914.75
0.3312,0.6688	-924.90
0.2836,0.7164	-924.39
0.3243,0.6757	-922.66
0.3231,0.6769	-924.85
0.4497,0.5503	-931.07
0.2747,0.7253	-916.86
0.3221,0.6779	-919.64
0.3105,0.6895	-924.87
0.2894,0.7106	-919.78
0.3489,0.6511	-922.67
0.3667,0.6333	-924.52
0.2783,0.7217	-917.85
0.3388,0.6612	-931.68
0.3066,0.6934	-918.37
0.3059,0.6941	-926.54
0.3615,0.6385	-926.60
0.3476,0.6524	-923.25
0.2787,0.7213	-913.10
0.3376,0.6624	-928.34
0.2881,0.7119	-917.96
0.2998,0.7002	-916.49
0.4085,0.5915	-926.98
0.3203,0.6797	-924.09
0.2758,0.7242	-923.63
0.3049,0.6951	-919.14
0.2895,0.7105	-914.39
0.3022,0.6978	-925.78
0.4340,0.5660	-931.73
0.3768,0.6232	-929.97
0.2847,0.7153	-918.83
0.3165,0.6835	-921.00
0.2939,0.7061	-924.19
0.2910,0.7090	-923.35
0.3906,0.6094	-933.17
0.3748,0.6252	-927.41
0.3078,0.6922	-924.08
0.3095,0.6905	-922.47
0.2975,0.7025	-921.57
0.2424,0.7576	-914.79
0.3144,0.6856	-924.07
0.3565,0.6435	-927.69
0.3271,0.6729	-924.87
0.3339,0.6661	-928.38
0.3439,0.6561	-925.07
0.2507,0.7493	-918.01
0.2801,0.7199	-924.47
0.3648,0.6352	-927.77
0.3705,0.6295	-925.20
0.3263,0.6737	-923.42
0.3694,0.6306	-926.23
0.2464,0.7536	-915.87
0.3076,0.6924	-922.45
0.3568,0.6432	-923.57
0.3495,0.6505	-923.93
0.2919,0.7081	-918.91
0.3610,0.6390	-924.88
0.3091,0.6909	-923.27
0.3198,0.6802	-929.37
0.3762,0.6238	-929.97
0.2837,0.7163	-917.90
0.2558,0.7442	-921.13
0.3252,0.6748	-918.29
0.3364,0.6636	-924.28
0.2900,0.7100	-917.09
0.3623,0.6377	-922.66
0.2698,0.7302	-921.81
0.2965,0.7035	-921.57
0.2733,0.7267	-913.91
0.3194,0.6806	-921.06
0.2561,0.7439	-922.19
0.3403,0.6597	-923.03
0.2691,0.7309	-921.82
0.3301,0.6699	-922.77
0.2647,0.7353	-919.88
0.3476,0.6524	-925.77
0.2741,0.7259	-918.80
0.3157,0.6843	-922.53
0.2464,0.7536	-925.93
0.3272,0.6728	-923.43
0.2306,0.7694	-915.01
0.3588,0.6412	-927.71
0.2636,0.7364	-914.76
0.3120,0.6880	-922.49
0.2730,0.7270	-919.79
0.3749,0.6251	-928.95
0.2105,0.7895	-915.79
0.3285,0.6715	-924.88
0.2436,0.7564	-918.18
0.3550,0.6450	-922.31
0.2207,0.7793	-910.28
0.3464,0.6536	-921.94
0.2105,0.7895	-911.82
0.2931,0.7069	-920.69
0.2210,0.7790	-909.02
0.3484,0.6516	-925.15
0.2009,0.7991	-919.13
0.3172,0.6828	-927.91
0.2142,0.7858	-919.50
0.2620,0.7380	-910.61
0.2457,0.7543	-914.75
0.3256,0.6744	-920.50
0.2093,0.7907	-917.18
0.3468,0.6532	-925.12
0.2259,0.7741	-925.00
0.2632,0.7368	-925.05
0.2469,0.7531	-923.66
0.3060,0.6940	-919.17
0.2139,0.7861	-914.32
0.3720,0.6280	-931.02
0.2472,0.7528	-915.86
0.2715,0.7285	-921.77
0.2439,0.7561	-922.69
0.3697,0.6303	-929.97
0.1991,0.8009	-916.49
0.3503,0.6497	-925.19
0.2678,0.7322	-927.88
0.2349,0.7651	-923.18
0.2579,0.7421	-913.67
0.3529,0.6471	-927.07
0.2260,0.7740	-920.07
0.3260,0.6740	-923.41
0.2725,0.7275	-911.93
0.2135,0.7865	-907.81
0.2991,0.7009	-920.73
0.3896,0.6104	-927.35
0.2334,0.7666	-918.51
0.2921,0.7079	-922.45
0.2394,0.7606	-918.30
0.2110,0.7890	-911.80
0.2756,0.7244	-924.60
0.3953,0.6047	-926.70
0.2193,0.7807	-914.11
0.3586,0.6414	-930.62
0.2528,0.7472	-924.47
0.2594,0.7406	-923.12
0.2927,0.7073	-925.98
0.3927,0.6073	-928.77
0.2226,0.7774	-917.76
0.3618,0.6382	-926.04
0.3184,0.6816	-921.04
0.2377,0.7623	-918.35
0.3004,0.6996	-919.89
0.3377,0.6623	-920.94
0.2596,0.7404	-927.31
0.3297,0.6703	-919.21
0.3202,0.6798	-922.59
0.2506,0.7494	-911.44
0.2750,0.7250	-923.65
0.3163,0.6837	-922.53
0.2347,0.7653	-917.28
0.3076,0.6924	-923.27
0.3302,0.6698	-924.19
0.2282,0.7718	-918.73
0.3171,0.6829	-921.78
0.2804,0.7196	-917.87
0.2692,0.7308	-917.82
0.2945,0.7055	-925.93
0.3233,0.6767	-923.38
0.2333,0.7667	-919.70
0.2746,0.7254	-920.75
0.3229,0.6771	-926.33
0.2561,0.7439	-917.92
0.3011,0.6989	-913.17
0.3262,0.6738	-924.87
0.3060,0.6940	-929.81
0.2549,0.7451	-919.01
0.3357,0.6643	-923.58
0.2386,0.7614	-919.48
0.2886,0.7114	-920.67
0.3469,0.6531	-923.23
0.2886,0.7114	-919.77
0.2377,0.7623	-916.02
0.3419,0.6581	-925.04
0.2646,0.7354	-916.82
0.3357,0.6643	-921.54
0.3380,0.6620	-920.94
0.2971,0.7029	-915.54
0.2445,0.7555	-914.77
0.3249,0.6751	-926.32
0.2387,0.7613	-919.48
0.3340,0.6660	-928.38
0.3266,0.6734	-924.87
0.2762,0.7238	-931.33
0.2553,0.7447	-913.65
0.3196,0.6804	-923.33
0.2953,0.7047	-925.92
0.3591,0.6409	-928.87
0.3015,0.6985	-920.75
0.2888,0.7112	-915.27
0.2519,0.7481	-925.61
0.2874,0.7126	-919.77
0.3541,0.6459	-918.06
0.4028,0.5972	-931.39
0.3410,0.6590	-922.39
0.2955,0.7045	-919.83
0.2376,0.7624	-919.52
0.2511,0.7489	-922.37
0.3215,0.6785	-922.61
0.3146,0.6854	-920.96
0.3610,0.6390	-932.30
0.2486,0.7514	-922.48
0.2249,0.7751	-915.18
0.2384,0.7616	-917.17
0.3243,0.6757	-922.66
0.3319,0.6681	-923.51
0.3334,0.6666	-921.46
0.2929,0.7071	-925.97
0.2388,0.7612	-921.79
0.2475,0.7525	-916.96
0.2984,0.7016	-921.57
0.3514,0.6486	-922.15
0.3391,0.6609	-924.99
0.3180,0.6820	-922.56
0.2836,0.7164	-919.75
0.2766,0.7234	-916.88
0.3199,0.6801	-923.34
0.3466,0.6534	-918.14
0.3101,0.6899	-928.87
0.3675,0.6325	-925.10
0.2564,0.7436	-918.98
0.3344,0.6656	-924.25
0.3401,0.6599	-925.67
0.3212,0.6788	-923.35
0.2931,0.7069	-917.16
0.3505,0.6495	-923.35
0.2635,0.7365	-918.87
0.3164,0.6836	-917.91
0.3368,0.6632	-923.61
0.2858,0.7142	-920.67
0.2956,0.7044	-916.36
0.3599,0.6401	-934.06
0.2403,0.7597	-919.42
0.3188,0.6812	-918.01
0.3299,0.6701	-921.35
0.2916,0.7084	-918.90
0.3123,0.6877	-922.49
0.3214,0.6786	-923.35
0.2533,0.7467	-916.88
0.2709,0.7291	-914.85
0.3772,0.6228	-927.47
0.3011,0.6989	-921.59
0.2875,0.7125	-920.67
0.3385,0.6615	-929.01
0.2867,0.7133	-921.58
0.2729,0.7271	-917.83
0.3729,0.6271	-926.85
0.2857,0.7143	-921.59
0.2635,0.7365	-928.12
0.3431,0.6569	-925.70
0.2474,0.7526	-921.42
0.2882,0.7118	-931.52
0.3350,0.6650	-922.20
0.2834,0.7166	-927.18
0.2862,0.7138	-917.02
0.2718,0.7282	-918.81
0.2409,0.7591	-922.84
0.2402,0.7598	-915.97
0.3283,0.6717	-921.30
0.2840,0.7160	-922.53
0.2385,0.7615	-913.68
0.3211,0.6789	-926.35
0.2434,0.7566	-921.58
0.2255,0.7745	-915.16
0.3223,0.6777	-924.11
0.3601,0.6399	-930.02
0.2629,0.7371	-917.85
0.3248,0.6752	-920.47
0.2219,0.7781	-915.28
0.2530,0.7470	-920.13
0.3303,0.6697	-921.36
0.3642,0.6358	-926.65
0.2841,0.7159	-918.83
0.3063,0.6937	-924.90
0.2627,0.7373	-915.79
0.2371,0.7629	-921.88
0.3025,0.6975	-923.27
0.3440,0.6560	-923.13
0.2980,0.7020	-921.57
0.2765,0.7235	-925.54
0.3031,0.6969	-920.77
0.2109,0.7891	-910.49
0.2790,0.7210	-927.35
0.3143,0.6857	-925.63
0.2800,0.7200	-919.75
0.2911,0.7089	-920.68
0.2701,0.7299	-917.82
0.1985,0.8015	-919.32
0.2467,0.7533	-918.09
0.3028,0.6972	-919.93
0.3169,0.6831	-921.77
0.2354,0.7646	-916.08
0.2347,0.7653	-922.00
0.2134,0.7866	-910.42
0.2624,0.7376	-924.05
0.3227,0.6773	-921.14
0.2659,0.7341	-925.96
0.2693,0.7307	-919.82
0.2215,0.7785	-915.30
0.2105,0.7895	-922.40
0.2727,0.7273	-917.83
0.2899,0.7101	-919.78
0.2860,0.7140	-917.02
0.2901,0.7099	-922.47
0.2266,0.7734	-910.21
0.2766,0.7234	-917.84
0.2965,0.7035	-917.25
0.2918,0.7082	-923.34
0.3301,0.6699	-922.77
0.2769,0.7231	-918.80
0.2079,0.7921	-919.94
0.2648,0.7352	-916.82
0.2732,0.7268	-917.83
0.2930,0.7070	-910.12
0.2838,0.7162	-916.98
0.2746,0.7254	-924.63
0.2323,0.7677	-918.55
0.2846,0.7154	-921.60
0.3155,0.6845	-923.30
0.2679,0.7321	-925.87
0.3306,0.6694	-928.43
0.2672,0.7328	-922.87
0.2322,0.7678	-912.58
0.2668,0.7332	-926.93
0.3028,0.6972	-921.60
0.2872,0.7128	-919.76
0.2702,0.7298	-918.82
0.2709,0.7291	-925.74
0.2484,0.7516	-911.41
0.2767,0.7233	-927.45
0.2798,0.7202	-920.70
0.2436,0.7564	-912.51
0.2760,0.7240	-923.62
0.2057,0.7943	-910.65
0.2359,0.7641	-920.76
0.2912,0.7088	-921.57
0.3041,0.6959	-924.92
0.2631,0.7369	-921.97
0.3210,0.6790	-925.60
0.2155,0.7845	-914.25
0.2642,0.7358	-909.65
0.3085,0.6915	-924.88
0.3250,0.6750	-927.05
0.2707,0.7293	-913.86
0.3040,0.6960	-921.61
0.2350,0.7650	-911.37
0.2396,0.7604	-907.90
0.2923,0.7077	-922.45
0.3161,0.6839	-921.76
0.3047,0.6953	-919.14
0.2939,0.7061	-914.55
0.2186,0.7814	-921.78
0.2635,0.7365	-915.79
0.2989,0.7011	-922.43
0.3486,0.6514	-926.41
0.3241,0.6759	-924.12
0.3098,0.6902	-916.86
0.2435,0.7565	-915.91
0.2633,0.7367	-922.99
0.3067,0.6933	-920.82
0.3360,0.6640	-919.51
0.3511,0.6489	-931.96
0.2964,0.7036	-919.84
0.2912,0.7088	-921.57
0.2857,0.7143	-918.84
0.2910,0.7090	-930.47
0.3350,0.6650	-928.37
0.3286,0.6714	-922.02
0.3163,0.6837	-920.22
0.2653,0.7347	-921.91
0.2524,0.7476	-919.06
0.3297,0.6703	-920.63
0.3741,0.6259	-927.40
0.2989,0.7011	-919.87
0.3515,0.6485	-919.71
0.2357,0.7643	-916.07
0.2357,0.7643	-923.13
0.3072,0.6928	-924.08
0.3755,0.6245	-930.99
0.2836,0.7164	-928.09
0.3762,0.6238	-928.46
0.2612,0.7388	-914.74
0.2378,0.7622	-916.02
0.2462,0.7538	-909.16
0.3778,0.6222	-926.98
0.3079,0.6921	-919.22
0.3646,0.6354	-925.55
0.2472,0.7528	-914.74
0.2299,0.7701	-927.12
0.2549,0.7451	-915.79
0.4370,0.5630	-932.05
0.3147,0.6853	-920.18
0.3382,0.6618	-927.67
0.2846,0.7154	-921.60
0.2474,0.7526	-919.19
0.2645,0.7355	-912.73
0.4353,0.5647	-932.02
0.2672,0.7328	-917.83
0.3471,0.6529	-925.76
0.2967,0.7033	-914.67
0.2601,0.7399	-912.65
0.2391,0.7609	-914.83
0.4575,0.5425	-931.45
0.2747,0.7253	-923.66
0.3519,0.6481	-928.28
0.2499,0.7501	-916.93
0.2842,0.7158	-916.98
0.2881,0.7119	-924.29
0.4393,0.5607	-931.35
0.2842,0.7158	-923.45
0.3540,0.6460	-927.08
0.2654,0.7346	-917.84
0.2946,0.7054	-918.95
0.2836,0.7164	-919.75
0.4051,0.5949	-927.56
0.2637,0.7363	-921.95
0.3109,0.6891	-927.25
0.2655,0.7345	-915.80
0.2603,0.7397	-912.65
0.3084,0.6916	-921.65
0.4032,0.5968	-930.21
0.2786,0.7214	-915.95
0.2950,0.7050	-923.31
0.2393,0.7607	-924.08
0.2957,0.7043	-921.57
0.2987,0.7013	-912.19
0.3709,0.6291	-926.27
0.2648,0.7352	-918.86
0.3129,0.6871	-920.14
0.3008,0.6992	-928.33
0.2921,0.7079	-921.57
0.2690,0.7310	-920.82
0.4276,0.5724	-930.17
0.2662,0.7338	-919.86
0.3463,0.6537	-928.29
0.3004,0.6996	-921.58
0.2583,0.7417	-922.11
0.3063,0.6937	-923.26
0.3989,0.6011	-926.46
0.2547,0.7453	-917.94
0.3185,0.6815	-922.56
0.3324,0.6676	-921.43
0.2642,0.7358	-926.03
0.3485,0.6515	-923.90
0.3687,0.6313	-928.36
0.2984,0.7016	-917.30
0.3620,0.6380	-928.31
0.3189,0.6811	-931.67
0.2689,0.7311	-910.82
0.3455,0.6545	-921.26
0.3999,0.6001	-928.54
0.3031,0.6969	-923.27
0.3905,0.6095	-929.61
0.3468,0.6532	-924.49
0.2610,0.7390	-917.86
0.3331,0.6669	-925.62
0.3290,0.6710	-922.03
0.2789,0.7211	-917.86
0.3912,0.6088	-924.31
0.3141,0.6859	-920.95
0.2436,0.7564	-919.31
0.3418,0.6582	-928.31
0.2823,0.7177	-919.75
0.2993,0.7007	-924.98
0.3669,0.6331	-928.89
0.3242,0.6758	-927.80
0.2671,0.7329	-919.85
0.3498,0.6502	-925.18
0.2697,0.7303	-924.80
0.3213,0.6787	-922.60
0.4237,0.5763	-933.11
0.3209,0.6791	-930.85
0.2763,0.7237	-918.80
0.3242,0.6758	-918.98
0.2828,0.7172	-913.24
0.3323,0.6677	-927.01
0.3474,0.6526	-924.50
0.3574,0.6426	-922.42
0.2302,0.7698	-918.64
0.3175,0.6825	-920.25
0.3331,0.6669	-922.14
0.2566,0.7434	-924.30
0.3429,0.6571	-927.65
0.3403,0.6597	-927.66
0.2145,0.7855	-919.49
0.3401,0.6599	-923.68
0.3113,0.6887	-921.69
0.2708,0.7292	-914.85
0.2978,0.7022	-919.00
0.3406,0.6594	-929.64
0.2550,0.7450	-919.01
0.3772,0.6228	-924.46
0.2897,0.7103	-919.78
0.2884,0.7116	-917.06
0.2837,0.7163	-919.75
0.3233,0.6767	-922.64
0.2608,0.7392	-920.99
0.3755,0.6245	-924.89
0.3690,0.6310	-924.61
0.2652,0.7348	-923.95
0.3205,0.6795	-926.35
0.3306,0.6694	-923.49
0.2706,0.7294	-918.82
0.3604,0.6396	-923.71
0.3177,0.6823	-924.08
0.2526,0.7474	-923.40
0.2915,0.7085	-918.90
0.3466,0.6534	-927.02
0.2363,0.7637	-918.40
0.4021,0.5979	-926.63
0.3012,0.6988	-922.43
0.2593,0.7407	-917.88
0.3133,0.6867	-922.50
0.3273,0.6727	-922.71
0.2607,0.7393	-916.83
0.4055,0.5945	-931.02
0.2866,0.7134	-927.06
0.2495,0.7505	-921.34
0.2520,0.7480	-920.16
0.3114,0.6886	-917.72
0.2580,0.7420	-913.67
0.4139,0.5861	-929.37
0.3064,0.6936	-922.45
0.2481,0.7519	-913.63
0.3113,0.6887	-915.33
0.3051,0.6949	-922.44
0.3039,0.6961	-918.29
0.4214,0.5786	-929.32
0.2504,0.7496	-918.02
0.2542,0.7458	-913.64
0.3330,0.6670	-927.70
0.3090,0.6910	-920.85
0.3334,0.6666	-924.23
0.4259,0.5741	-929.21
0.2742,0.7258	-915.88
0.2308,0.7692	-917.41
0.3305,0.6695	-927.01
0.2897,0.7103	-919.78
0.2776,0.7224	-912.11
0.3909,0.6091	-924.73
0.2371,0.7629	-913.70
0.2595,0.7405	-919.98
0.3451,0.6549	-924.45
0.2751,0.7249	-922.68
0.2312,0.7688	-918.60
0.4113,0.5887	-932.15
0.2403,0.7597	-915.97
0.2773,0.7227	-921.68
0.3159,0.6841	-924.07
0.2972,0.7028	-925.87
0.2249,0.7751	-913.94
0.4046,0.5954	-925.60
0.2613,0.7387	-922.02
0.3198,0.6802	-921.83
0.3118,0.6882	-923.28
0.2726,0.7274	-922.73
0.2429,0.7571	-917.06
0.4162,0.5838	-930.13
0.2596,0.7404	-925.22
0.3466,0.6534	-927.65
0.3587,0.6413	-926.55
0.2703,0.7297	-927.76
0.2710,0.7290	-928.71
0.3474,0.6526	-927.65
0.2275,0.7725	-910.21
0.3263,0.6737	-924.14
0.3475,0.6525	-920.72
0.2893,0.7107	-927.87
0.2902,0.7098	-920.68
0.3359,0.6641	-924.95
0.1983,0.8017	-913.75
0.3220,0.6780	-919.64
0.3760,0.6240	-925.41
0.2671,0.7329	-922.88
0.2994,0.7006	-918.18
0.3457,0.6543	-927.01
0.2104,0.7896	-917.12
0.3352,0.6648	-924.26
0.4252,0.5748	-932.19
0.2474,0.7526	-913.63
0.2577,0.7423	-920.02
0.3819,0.6181	-928.07
0.2147,0.7853	-900.02
0.2599,0.7401	-922.06
0.5065,0.4935	-934.26
0.2312,0.7688	-916.20
0.2873,0.7127	-922.49
0.3520,0.6480	-928.89
0.2070,0.7930	-913.29
0.2686,0.7314	-918.83
0.5401,0.4599	-935.14
0.2420,0.7580	-910.23
0.3115,0.6885	-920.90
0.3226,0.6774	-924.85
0.1767,0.8233	-916.98
0.2412,0.7588	-911.37
0.5324,0.4676	-934.47
0.3044,0.6956	-925.74
0.3261,0.6739	-919.78
0.3033,0.6967	-923.27
0.1892,0.8108	-923.09
0.2616,0.7384	-922.01
0.4970,0.5030	-933.75
0.3068,0.6932	-918.37
0.3463,0.6537	-932.10
0.3168,0.6832	-927.15
0.2110,0.7890	-909.17
0.2594,0.7406	-913.68
0.4473,0.5527	-930.97
0.3249,0.6751	-924.13
0.3424,0.6576	-925.70
0.3388,0.6612	-923.65
0.2178,0.7822	-912.89
0.2695,0.7305	-921.81
0.4405,0.5595	-930.91
0.3182,0.6818	-924.85
0.3106,0.6894	-923.27
0.3628,0.6372	-923.81
0.2177,0.7823	-918.01
0.2464,0.7536	-919.22
0.4144,0.5856	-930.08
0.3043,0.6957	-921.61
0.3218,0.6782	-919.63
0.3163,0.6837	-920.22
0.2225,0.7775	-919.01
0.2918,0.7082	-919.79
0.3646,0.6354	-924.99
0.2996,0.7004	-924.13
0.2812,0.7188	-926.32
0.3260,0.6740	-922.69
0.2607,0.7393	-923.08
0.2679,0.7321	-920.84
0.3090,0.6910	-917.64
0.3062,0.6938	-921.63
0.2897,0.7103	-913.50
0.3644,0.6356	-928.33
0.2611,0.7389	-911.62
0.3228,0.6772	-924.11
0.2570,0.7430	-913.66
0.2900,0.7100	-917.99
0.3072,0.6928	-916.76
0.3557,0.6443	-927.69
0.2915,0.7085	-918.01
0.3283,0.6717	-925.60
0.2397,0.7603	-919.44
0.3179,0.6821	-922.56
0.3702,0.6298	-926.25
0.3247,0.6753	-919.73
0.2824,0.7176	-916.95
0.3705,0.6295	-928.91
0.2389,0.7611	-916.00
0.2586,0.7414	-911.57
0.3667,0.6333	-931.08
0.2678,0.7322	-922.86
0.2595,0.7405	-919.98
0.3463,0.6537	-928.92
0.2268,0.7732	-911.44
0.2798,0.7202	-915.03
0.3399,0.6601	-920.36
0.2749,0.7251	-920.74
0.2272,0.7728	-918.78
0.2729,0.7271	-915.87
0.2028,0.7972	-903.92
0.2498,0.7502	-914.73
0.2907,0.7093	-912.65
0.2923,0.7077	-921.57
0.2581,0.7419	-920.01
0.3050,0.6950	-920.79
0.2041,0.7959	-914.79
0.2595,0.7405	-913.69
0.2753,0.7247	-928.48
0.2978,0.7022	-918.14
0.2577,0.7423	-916.84
0.2912,0.7088	-921.57
0.2397,0.7603	-914.82
0.2794,0.7206	-925.44
0.3116,0.6884	-925.66
0.3197,0.6803	-922.58
0.2799,0.7201	-916.92
0.3043,0.6957	-923.26
0.2472,0.7528	-921.43
0.2583,0.7417	-916.84
0.2981,0.7019	-921.57
0.3831,0.6169	-925.71
0.3227,0.6773	-920.40
0.2921,0.7079	-920.68
0.2714,0.7286	-919.80
0.2224,0.7776	-914.01
0.2632,0.7368	-916.82
0.3353,0.6647	-920.16
0.3719,0.6281	-927.35
0.2964,0.7036	-927.62
0.2863,0.7137	-915.19
0.2626,0.7374	-915.79
0.2650,0.7350	-921.92
0.3299,0.6701	-923.47
0.3106,0.6894	-921.68
0.3020,0.6980	-919.08
0.3158,0.6842	-919.44
0.2367,0.7633	-918.39
0.2786,0.7214	-921.66
0.3454,0.6546	-927.65
0.2646,0.7354	-913.75
0.2870,0.7130	-923.40
0.3237,0.6763	-925.59
0.2882,0.7118	-920.67
0.2991,0.7009	-922.43
0.2974,0.7026	-921.57
0.3025,0.6975	-923.27
0.2749,0.7251	-920.74
0.3177,0.6823	-921.79
0.3062,0.6938	-927.35
0.3161,0.6839	-921.76
0.2655,0.7345	-920.89
0.2859,0.7141	-917.93
0.2790,0.7210	-915.01
0.2715,0.7285	-921.77
0.3172,0.6828	-924.08
0.3051,0.6949	-920.79
0.2649,0.7351	-916.82
0.2746,0.7254	-914.92
0.2826,0.7174	-915.09
0.2673,0.7327	-922.87
0.3077,0.6923	-919.21
0.3065,0.6935	-919.18
0.3248,0.6752	-922.66
0.2583,0.7417	-923.16
0.3013,0.6987	-925.79
0.2378,0.7622	-919.51
0.3243,0.6757	-923.39
0.3530,0.6470	-927.67
0.3055,0.6945	-921.62
0.3347,0.6653	-927.69
0.3368,0.6632	-926.32
0.2766,0.7234	-928.42
0.3274,0.6726	-926.31
0.3906,0.6094	-927.83
0.3284,0.6716	-924.17
0.3741,0.6259	-927.91
0.3584,0.6416	-924.80
0.2366,0.7634	-918.39
0.3622,0.6378	-926.05
0.4041,0.5959	-930.62
0.2929,0.7071	-927.73
0.3264,0.6736	-922.69
0.3565,0.6435	-921.79
0.2415,0.7585	-923.95
0.3371,0.6629	-929.70
0.3983,0.6017	-926.84
0.3085,0.6915	-923.27
0.3406,0.6594	-924.36
0.3662,0.6338	-925.05
0.2422,0.7578	-917.07
0.3494,0.6506	-929.52
0.3609,0.6391	-926.59
0.3577,0.6423	-924.78
0.3041,0.6959	-924.09
0.3357,0.6643	-926.31
0.2100,0.7900	-913.16
0.3540,0.6460	-930.08
0.3390,0.6610	-922.32
0.3095,0.6905	-918.45
0.3134,0.6866	-924.07
0.3310,0.6690	-927.01
0.2184,0.7816	-921.79
0.3565,0.6435	-925.92
0.3483,0.6517	-923.27
0.2901,0.7099	-921.57
0.3354,0.6646	-924.26
0.3361,0.6639	-926.32
0.2339,0.7661	-925.61
0.3733,0.6267	-928.42
0.3160,0.6840	-914.81
0.3255,0.6745	-922.68
0.3341,0.6659	-918.72
0.3215,0.6785	-920.37
0.3126,0.6874	-920.92
0.3308,0.6692	-919.97
0.2915,0.7085	-915.35
0.3708,0.6292	-927.33
0.3351,0.6649	-922.89
0.3130,0.6870	-921.71
0.3127,0.6873	-918.56
0.3036,0.6964	-921.61
0.2903,0.7097	-921.57
0.3478,0.6522	-926.40
0.3374,0.6626	-927.00
0.2955,0.7045	-913.75
0.2753,0.7247	-919.77
0.3582,0.6418	-928.87
0.2739,0.7261	-926.60
0.3867,0.6133	-930.02
0.3418,0.6582	-921.10
0.2937,0.7063	-920.69
0.2998,0.7002	-922.43
0.4128,0.5872	-931.80
0.2453,0.7547	-915.88
0.4105,0.5895	-930.71
0.3186,0.6814	-918.00
0.2841,0.7159	-916.98
0.3631,0.6369	-923.26
0.3434,0.6566	-925.71
0.2629,0.7371	-921.97
0.3246,0.6754	-921.93
0.3160,0.6840	-920.21
0.2903,0.7097	-924.25
0.3617,0.6383	-926.60
0.3792,0.6208	-924.56
0.2230,0.7770	-917.74
0.2577,0.7423	-916.84
0.3630,0.6370	-928.32
0.3129,0.6871	-918.56
0.3593,0.6407	-924.82
0.3513,0.6487	-928.28
0.2491,0.7509	-924.66
0.2625,0.7375	-920.95
0.3862,0.6138	-927.24
0.2877,0.7123	-925.21
0.3224,0.6776	-921.88
0.3354,0.6646	-926.31
0.2573,0.7427	-927.44
0.2203,0.7797	-917.87
0.3840,0.6160	-923.38
0.3592,0.6408	-930.61
0.3896,0.6104	-925.55
0.3113,0.6887	-920.10
0.2577,0.7423	-920.02
0.1885,0.8115	-902.73
0.3497,0.6503	-924.56
0.3335,0.6665	-927.00
0.3618,0.6382	-920.93
0.3193,0.6807	-924.09
0.3067,0.6933	-920.00
0.1848,0.8152	-926.58
0.3199,0.6801	-918.06
0.3339,0.6661	-922.86
0.2525,0.7475	-921.23
0.3096,0.6904	-928.08
0.3655,0.6345	-923.92
0.1683,0.8317	-911.56
0.3690,0.6310	-927.29
0.3448,0.6552	-927.01
0.2330,0.7670	-920.91
0.3213,0.6787	-924.85
0.3287,0.6713	-924.88
0.1632,0.8368	-907.17
0.3586,0.6414	-930.04
0.3703,0.6297	-926.26
0.2670,0.7330	-915.81
0.2761,0.7239	-918.80
0.3501,0.6499	-924.57
0.1717,0.8283	-917.54
0.3237,0.6763	-924.86
0.4166,0.5834	-930.14
0.2551,0.7449	-924.37
0.2768,0.7232	-914.00
0.3279,0.6721	-928.47
0.2007,0.7993	-909.46
0.3669,0.6331	-928.89
0.3990,0.6010	-928.51
0.2765,0.7235	-917.84
0.2706,0.7294	-924.77
0.2994,0.7006	-920.73
0.2378,0.7622	-918.35
0.3290,0.6710	-924.88
0.3509,0.6491	-924.59
0.2993,0.7007	-920.73
0.2658,0.7342	-917.83
0.2569,0.7431	-911.54
0.2222,0.7778	-916.52
0.3243,0.6757	-918.98
0.3395,0.6605	-926.33
0.3699,0.6301	-925.18
0.2798,0.7202	-915.03
0.2571,0.7429	-912.60
0.2175,0.7825	-923.14
0.2767,0.7233	-913.04
0.3294,0.6706	-926.31
0.3221,0.6779	-924.85
0.3053,0.6947	-922.44
0.2295,0.7705	-917.46
0.2333,0.7667	-914.94
0.2583,0.7417	-913.67
0.3539,0.6461	-930.09
0.4008,0.5992	-928.97
0.2644,0.7356	-923.98
0.2460,0.7540	-923.71
0.2500,0.7500	-914.73
0.2624,0.7376	-911.65
0.3103,0.6897	-924.87
0.3536,0.6464	-923.45
0.2358,0.7642	-916.07
0.2471,0.7529	-915.86
0.2527,0.7473	-916.89
0.2707,0.7293	-920.80
0.3472,0.6528	-922.60
0.3658,0.6342	-926.14
0.2357,0.7643	-921.96
0.2425,0.7575	-910.23
0.2332,0.7668	-919.71
0.2928,0.7072	-914.51
0.3467,0.6533	-923.22
0.3446,0.6554	-927.65
0.2497,0.7503	-918.03
0.2343,0.7657	-920.85
0.2342,0.7658	-918.48
0.2843,0.7157	-919.75
0.3202,0.6798	-925.60
0.3487,0.6513	-925.16
0.3049,0.6951	-922.44
0.2590,0.7410	-928.40
0.2893,0.7107	-914.38
0.2777,0.7223	-921.67
0.3006,0.6994	-926.65
0.3638,0.6362	-926.64
0.3269,0.6731	-919.82
0.2292,0.7708	-921.11
0.2928,0.7072	-924.21
0.2827,0.7173	-918.82
0.2649,0.7351	-915.80
0.3304,0.6696	-925.60
0.3161,0.6839	-917.90
0.2700,0.7300	-916.83
0.2937,0.7063	-924.20
0.3016,0.6984	-927.47
0.3385,0.6615	-926.33
0.3742,0.6258	-926.89
0.3193,0.6807	-921.06
0.3244,0.6756	-928.53
0.2524,0.7476	-913.63
0.2782,0.7218	-918.80
0.3525,0.6475	-925.85
0.3209,0.6791	-928.60
0.3735,0.6265	-925.32
0.2882,0.7118	-917.96
0.2459,0.7541	-920.35
0.2678,0.7322	-915.82
0.3740,0.6260	-923.27
0.3229,0.6771	-927.81
0.3707,0.6293	-928.39
0.2911,0.7089	-921.57
0.2761,0.7239	-925.55
0.2720,0.7280	-923.73
0.4059,0.5941	-931.02
0.3373,0.6627	-922.27
0.3447,0.6553	-926.37
0.2939,0.7061	-918.94
0.2914,0.7086	-926.90
0.2580,0.7420	-917.90
0.4032,0.5968	-929.43
0.3009,0.6991	-920.74
0.3370,0.6630	-924.29
0.2653,0.7347	-917.84
0.2793,0.7207	-922.60
0.2799,0.7201	-919.75
0.4029,0.5971	-929.82
0.2711,0.7289	-917.82
0.3200,0.6800	-920.32
0.2965,0.7035	-920.71
0.3235,0.6765	-923.38
0.2730,0.7270	-918.81
0.4087,0.5913	-926.98
0.2674,0.7326	-922.87
0.3109,0.6891	-924.87
0.3285,0.6715	-924.88
0.3660,0.6340	-926.69
0.2562,0.7438	-920.05
0.4230,0.5770	-928.76
0.2326,0.7674	-906.61
0.2920,0.7080	-918.02
0.3127,0.6873	-920.13
0.3444,0.6556	-927.01
0.2327,0.7673	-914.96
0.4314,0.5686	-930.31
0.2186,0.7814	-914.13
0.3024,0.6976	-915.74
0.2806,0.7194	-925.40
0.3006,0.6994	-921.59
0.2886,0.7114	-908.95
0.3944,0.6056	-929.66
0.2566,0.7434	-915.79
0.3173,0.6827	-919.48
0.2859,0.7141	-917.93
0.2953,0.7047	-928.53
0.2398,0.7602	-911.36
0.3997,0.6003	-932.19
0.2757,0.7243	-917.84
0.2991,0.7009	-923.28
0.3189,0.6811	-923.33
0.2747,0.7253	-911.03
0.2573,0.7427	-921.08
0.3670,0.6330	-926.71
0.3048,0.6952	-927.39
0.2625,0.7375	-913.72
0.3345,0.6655	-924.25
0.2506,0.7494	-916.92
0.2960,0.7040	-927.63
0.3744,0.6256	-924.32
0.3099,0.6901	-920.07
0.2536,0.7464	-924.44
0.3560,0.6440	-923.54
0.2676,0.7324	-921.85
0.3008,0.6992	-920.74
0.3326,0.6674	-924.92
0.3056,0.6944	-912.59
0.2237,0.7763	-912.73
0.3295,0.6705	-918.50
0.2217,0.7783	-917.80
0.3312,0.6688	-920.69
0.3194,0.6806	-924.09
0.2755,0.7245	-920.74
0.1919,0.8081	-921.35
0.3149,0.6851	-920.19
0.2217,0.7783	-917.80
0.3364,0.6636	-924.28
0.3169,0.6831	-919.47
0.2922,0.7078	-916.26
0.2209,0.7791	-912.80
0.2983,0.7017	-921.57
0.2616,0.7384	-922.01
0.3625,0.6375	-925.49
0.3469,0.6531	-928.29
0.2826,0.7174	-916.96
0.2388,0.7612	-918.32
0.3346,0.6654	-927.69
0.2330,0.7670	-918.53
0.3649,0.6351	-925.56
0.3258,0.6742	-920.50
0.2599,0.7401	-918.92
0.2596,0.7404	-930.45
0.3367,0.6633	-921.57
0.2633,0.7367	-919.91
0.3701,0.6299	-923.59
0.3502,0.6498	-927.04
0.2722,0.7278	-919.79
0.2983,0.7017	-916.44
0.3780,0.6220	-924.50
0.2745,0.7255	-917.83
0.3746,0.6254	-929.97
0.3571,0.6429	-924.76
0.2589,0.7411	-926.30
0.3145,0.6855	-924.07
0.3798,0.6202	-928.02
0.2863,0.7137	-919.76
0.3215,0.6785	-924.10
0.3503,0.6497	-925.19
0.2699,0.7301	-917.82
0.3482,0.6518	-922.64
0.3279,0.6721	-922.01
0.2657,0.7343	-912.75
0.3221,0.6779	-918.15
0.3103,0.6897	-923.27
0.2279,0.7721	-923.63
0.3598,0.6402	-926.57
0.2824,0.7176	-919.75
0.2259,0.7741	-916.38
0.3113,0.6887	-917.72
0.2832,0.7168	-915.11
0.2470,0.7530	-911.40
0.3479,0.6521	-925.14
0.2949,0.7051	-919.82
0.2457,0.7543	-917.00
0.2568,0.7432	-921.10
0.2562,0.7438	-915.79
0.2614,0.7386	-918.90
0.3671,0.6329	-926.71
0.2339,0.7661	-912.56
0.2695,0.7305	-920.82
0.2707,0.7293	-918.82
0.2357,0.7643	-918.42
0.2517,0.7483	-922.35
0.3680,0.6320	-925.11
0.2633,0.7367	-922.99
0.3125,0.6875	-921.70
0.3171,0.6829	-918.71
0.2435,0.7565	-917.04
0.2688,0.7312	-920.83
0.3449,0.6551	-919.95
0.2527,0.7473	-920.14
0.3097,0.6903	-925.67
0.2995,0.7005	-925.83
0.2487,0.7513	-915.84
0.2579,0.7421	-914.73
0.3300,0.6700	-921.35
0.2694,0.7306	-916.83
0.2676,0.7324	-919.84
0.2994,0.7006	-919.88
0.2506,0.7494	-914.73
0.2421,0.7579	-911.37
0.3215,0.6785	-924.10
0.2607,0.7393	-916.83
0.2797,0.7203	-918.81
0.2811,0.7189	-917.87
0.2830,0.7170	-917.89
0.2624,0.7376	-909.59
0.3145,0.6855	-919.40
0.2730,0.7270	-916.85
0.2946,0.7054	-921.57
0.2602,0.7398	-916.83
0.3001,0.6999	-921.58
0.3039,0.6961	-924.09
0.3237,0.6763	-931.49
0.3163,0.6837	-924.85
0.2749,0.7251	-913.95
0.2654,0.7346	-917.84
0.3315,0.6685	-917.89
0.2731,0.7269	-917.83
0.3098,0.6902	-921.67
0.3294,0.6706	-920.62
0.2336,0.7664	-920.88
0.2148,0.7852	-918.17
0.2590,0.7410	-915.78
0.2912,0.7088	-920.68
0.3201,0.6799	-925.60
0.3111,0.6889	-925.66
0.2420,0.7580	-911.37
0.2611,0.7389	-915.78
0.2656,0.7344	-916.82
0.2828,0.7172	-924.41
0.3425,0.6575	-921.13
0.3098,0.6902	-920.06
0.2601,0.7399	-919.96
0.2910,0.7090	-918.90
0.2897,0.7103	-923.36
0.2905,0.7095	-923.36
0.2846,0.7154	-921.60
0.3082,0.6918	-922.46
0.2307,0.7693	-916.21
0.2804,0.7196	-920.70
0.3646,0.6354	-928.33
0.3323,0.6677	-924.22
0.2857,0.7143	-921.59
0.3191,0.6809	-923.33
0.2631,0.7369	-918.88
0.3200,0.6800	-920.32
0.3364,0.6636	-927.00
0.3402,0.6598	-919.71
0.2952,0.7048	-917.21
0.3110,0.6890	-923.27
0.2845,0.7155	-922.52
0.3455,0.6545	-925.74
0.3034,0.6966	-923.27
0.3497,0.6503	-923.94
0.3083,0.6917	-916.80
0.3320,0.6680	-929.11
0.2986,0.7014	-922.43
0.3434,0.6566	-918.58
0.2887,0.7113	-919.77
0.3365,0.6635	-925.64
0.2788,0.7212	-914.05
0.3340,0.6660	-920.10
0.2880,0.7120	-912.53
0.3062,0.6938	-930.62
0.2426,0.7574	-913.65
0.3372,0.6628	-924.97
0.2854,0.7146	-923.43
0.3545,0.6455	-922.89
0.2662,0.7338	-918.85
0.2947,0.7053	-924.18
0.2964,0.7036	-921.57
0.3150,0.6850	-928.73
0.2948,0.7052	-923.31
0.3613,0.6387	-923.75
0.2520,0.7480	-914.72
0.2859,0.7141	-917.01
0.3263,0.6737	-927.04
0.3205,0.6795	-924.10
0.2959,0.7041	-917.23
0.3399,0.6601	-929.65
0.2765,0.7235	-918.80
0.2505,0.7495	-914.73
0.2680,0.7320	-918.83
0.2475,0.7525	-913.63
0.2668,0.7332	-915.81
0.3174,0.6826	-919.48
0.2759,0.7241	-915.91
0.2523,0.7477	-925.58
0.2489,0.7511	-916.94
0.2708,0.7292	-915.84
0.2487,0.7513	-916.94
0.3236,0.6764	-923.38
0.3037,0.6963	-919.95
0.2730,0.7270	-916.85
0.2590,0.7410	-925.24
0.2690,0.7310	-917.82
0.2716,0.7284	-920.78
0.3017,0.6983	-921.59
0.2773,0.7227	-911.14
0.2647,0.7353	-919.88
0.2607,0.7393	-916.83
0.2546,0.7454	-917.94
0.2701,0.7299	-922.79
0.2962,0.7038	-918.97
0.2836,0.7164	-925.31
0.2864,0.7136	-922.50
0.2701,0.7299	-921.80
0.2964,0.7036	-921.57
0.2427,0.7573	-917.06
0.3248,0.6752	-932.18
0.2843,0.7157	-924.37
0.2923,0.7077	-925.10
0.2951,0.7049	-923.31
0.2775,0.7225	-926.46
0.2881,0.7119	-923.39
0.3094,0.6906	-917.65
0.2928,0.7072	-920.68
0.2935,0.7065	-927.71
0.2566,0.7434	-910.47
0.3081,0.6919	-920.84
0.2857,0.7143	-920.67
0.2711,0.7289	-915.85
0.2929,0.7071	-921.57
0.2889,0.7111	-912.57
0.2483,0.7517	-915.84
0.2896,0.7104	-916.19
0.3481,0.6519	-923.26
0.2886,0.7114	-919.77
0.3107,0.6893	-923.27
0.2652,0.7348	-909.69
0.2572,0.7428	-912.60
0.2920,0.7080	-930.42
0.3665,0.6335	-929.44
0.2937,0.7063	-920.69
0.2692,0.7308	-918.82
0.2903,0.7097	-920.68
0.2678,0.7322	-916.82
0.2406,0.7594	-913.66
0.3372,0.6628	-924.29
0.2721,0.7279	-921.76
0.2612,0.7388	-915.78
0.2929,0.7071	-920.68
0.2595,0.7405	-918.93
0.2326,0.7674	-913.77
0.3618,0.6382	-929.44
0.2512,0.7488	-920.18
0.2908,0.7092	-925.13
0.3107,0.6893	-919.29
0.3130,0.6870	-921.71
0.2438,0.7562	-907.98
0.3942,0.6058	-927.08
0.2297,0.7703	-918.66
0.3439,0.6561	-925.07
0.2910,0.7090	-919.79
0.3074,0.6926	-917.58
0.2491,0.7509	-918.04
0.3613,0.6387	-931.15
0.2486,0.7514	-911.42
0.3385,0.6615	-924.32
0.2821,0.7179	-918.82
0.2715,0.7285	-916.84
0.2866,0.7134	-914.29
0.4092,0.5908	-929.58
0.2387,0.7613	-917.16
0.4255,0.5745	-930.99
0.3227,0.6773	-922.63
0.3146,0.6854	-918.62
0.2583,0.7417	-910.51
0.3725,0.6275	-924.76
0.2875,0.7125	-924.30
0.3889,0.6111	-928.23
0.3219,0.6781	-925.59
0.3127,0.6873	-924.07
0.2300,0.7700	-912.61
0.4076,0.5924	-927.30
0.2335,0.7665	-923.26
0.3829,0.6171	-927.13
0.3244,0.6756	-923.39
0.3055,0.6945	-918.34
0.2247,0.7753	-911.47
0.3261,0.6739	-917.61
0.2555,0.7445	-924.34
0.3951,0.6049	-929.67
0.2769,0.7231	-919.76
0.3257,0.6743	-923.41
0.2203,0.7797	-914.08
0.2681,0.7319	-917.83
0.2852,0.7148	-926.19
0.4052,0.5948	-927.94
0.2371,0.7629	-919.54
0.3663,0.6337	-925.05
0.2588,0.7412	-921.04
0.2440,0.7560	-914.77
0.2714,0.7286	-914.86
0.3477,0.6523	-921.36
0.2605,0.7395	-919.96
0.3386,0.6614	-920.97
0.2417,0.7583	-919.37
0.2514,0.7486	-913.63
0.3097,0.6903	-927.28
0.3381,0.6619	-927.67
0.2546,0.7454	-915.79
0.3397,0.6603	-917.69
0.2490,0.7510	-922.46
0.2556,0.7444	-916.86
0.3292,0.6708	-922.75
0.3279,0.6721	-924.16
0.2650,0.7350	-913.76
0.3377,0.6623	-922.95
0.2562,0.7438	-924.31
0.3070,0.6930	-923.26
0.3654,0.6346	-928.89
0.2980,0.7020	-923.29
0.2713,0.7287	-914.86
0.3774,0.6226	-925.97
0.2562,0.7438	-918.98
0.3292,0.6708	-921.33
0.3722,0.6278	-923.17
0.3079,0.6921	-918.41
0.2409,0.7591	-920.55
0.3571,0.6429	-926.52
0.2287,0.7713	-910.20
0.3533,0.6467	-925.26
0.3776,0.6224	-925.98
0.3135,0.6865	-920.94
0.2360,0.7640	-904.32
0.4237,0.5763	-927.88
0.2544,0.7456	-915.79
0.3856,0.6144	-926.75
0.3134,0.6866	-917.79
0.2717,0.7283	-920.78
0.2081,0.7919	-918.59
0.3481,0.6519	-926.40
0.2510,0.7490	-921.28
0.3820,0.6180	-926.62
0.3130,0.6870	-923.28
0.2694,0.7306	-916.83
0.2356,0.7644	-919.60
0.2915,0.7085	-916.24
0.2435,0.7565	-919.31
0.3645,0.6355	-926.66
0.3070,0.6930	-921.64
0.2599,0.7401	-912.64
0.2349,0.7651	-916.09
0.2550,0.7450	-923.30
0.2665,0.7335	-915.81
0.3700,0.6300	-925.72
0.3201,0.6799	-917.31
0.2552,0.7448	-917.93
0.2668,0.7332	-915.81
0.2620,0.7380	-915.79
0.2314,0.7686	-917.39
0.3560,0.6440	-928.88
0.3408,0.6592	-922.38
0.2522,0.7478	-925.59
0.2697,0.7303	-922.80
0.3108,0.6892	-918.49
0.2543,0.7457	-923.33
0.3600,0.6400	-927.15
0.3378,0.6622	-929.01
0.2455,0.7545	-922.62
0.2436,0.7564	-924.98
0.2847,0.7153	-920.68
0.2567,0.7433	-921.10
0.3218,0.6782	-928.58
0.3140,0.6860	-927.20
0.2468,0.7532	-915.86
0.2799,0.7201	-913.14
0.3111,0.6889	-922.48
0.2495,0.7505	-913.63
0.3256,0.6744	-921.22
0.3345,0.6655	-926.31
0.2728,0.7272	-916.85
0.2622,0.7378	-924.06
0.3232,0.6768	-924.85
0.2600,0.7400	-923.10
0.3345,0.6655	-924.25
0.3321,0.6679	-924.21
0.2635,0.7365	-919.90
0.2821,0.7179	-921.62
0.3336,0.6664	-920.77
0.2283,0.7717	-911.42
0.3732,0.6268	-927.90
0.3099,0.6901	-920.07
0.2824,0.7176	-919.75
0.3037,0.6963	-916.63
0.3070,0.6930	-921.64
0.2291,0.7709	-917.48
0.3081,0.6919	-924.07
0.3196,0.6804	-918.04
0.3019,0.6981	-916.56
0.2696,0.7304	-917.82
0.2839,0.7161	-922.53
0.2803,0.7197	-917.87
0.3238,0.6762	-919.70
0.3358,0.6642	-926.31
0.3263,0.6737	-923.42
0.2737,0.7263	-918.80
0.2624,0.7376	-911.65
0.3030,0.6970	-918.27
0.3429,0.6571	-930.91
0.3255,0.6745	-922.68
0.2757,0.7243	-918.80
0.2620,0.7380	-922.00
0.2580,0.7420	-917.90
0.3337,0.6663	-921.47
0.3293,0.6707	-924.89
0.3256,0.6744	-924.14
0.2923,0.7077	-913.61
0.3030,0.6970	-929.10
0.2295,0.7705	-916.25
0.3256,0.6744	-921.22
0.3123,0.6877	-920.91
0.3166,0.6834	-926.39
0.2796,0.7204	-915.97
0.3385,0.6615	-924.99
0.2366,0.7634	-905.51
0.3318,0.6682	-929.11
0.3049,0.6951	-919.14
0.3085,0.6915	-923.27
0.2604,0.7396	-918.92
0.3731,0.6269	-927.89
0.3119,0.6881	-921.69
0.2892,0.7108	-925.17
0.3641,0.6359	-926.65
0.3002,0.6998	-923.28
0.2396,0.7604	-924.07
0.3508,0.6492	-925.20
0.3319,0.6681	-924.91
0.2931,0.7069	-923.33
0.3495,0.6505	-925.79
0.3170,0.6830	-921.01
0.2478,0.7522	-912.52
0.3285,0.6715	-924.88
0.3505,0.6495	-928.28
0.2682,0.7318	-917.83
0.3322,0.6678	-923.52
0.3347,0.6653	-927.69
0.2888,0.7112	-919.77
0.3251,0.6749	-924.86
0.3467,0.6533	-927.02
0.2654,0.7346	-916.82
0.2781,0.7219	-916.90
0.3086,0.6914	-926.49
0.2825,0.7175	-915.09
