#isoforms=['ENSG00000110080.SE.2.A.up_ENSG00000110080.SE.2.A.SE1_ENSG00000110080.SE.2.A.dn','ENSG00000110080.SE.2.B.up_ENSG00000110080.SE.2.B.dn']	exon_lens=('ENSG00000110080.SE.2.A.up',61),('ENSG00000110080.SE.2.A.SE1',96),('ENSG00000110080.SE.2.A.dn',190),('ENSG00000110080.SE.2.B.up',61),('ENSG00000110080.SE.2.B.dn',190)	iters=5000	burn_in=500	lag=10	percent_accept=95.53	proposal_type=drift	counts=(0,0):583,(1,0):286,(1,1):254	assigned_counts=0:539,1:1	chrom=chr11	strand=+	mRNA_starts=126407574,126407574	mRNA_ends=126408496,126408496
sampled_psi	log_score
0.9664,0.0336	-3003.22
0.9818,0.0182	-2985.16
0.9790,0.0210	-3005.16
0.9885,0.0115	-2978.89
0.9760,0.0240	-3009.07
0.9646,0.0354	-3036.62
0.9717,0.0283	-3012.89
0.9802,0.0198	-3012.92
0.9788,0.0212	-3005.17
0.9899,0.0101	-2992.18
0.9776,0.0224	-3009.01
0.9675,0.0325	-3019.98
0.9746,0.0254	-2998.19
0.9772,0.0228	-3016.54
0.9797,0.0203	-3001.25
0.9891,0.0109	-2987.71
0.9731,0.0269	-3012.83
0.9700,0.0300	-3009.52
0.9792,0.0208	-2993.58
0.9798,0.0202	-2989.60
0.9810,0.0190	-2997.20
0.9892,0.0108	-2987.69
0.9772,0.0228	-2997.75
0.9722,0.0278	-3009.31
0.9795,0.0205	-2989.66
0.9794,0.0206	-2985.83
0.9830,0.0170	-3005.09
0.9905,0.0095	-2978.23
0.9796,0.0204	-2997.39
0.9794,0.0206	-2993.55
0.9826,0.0174	-2980.87
0.9763,0.0237	-3001.62
0.9817,0.0183	-3005.08
0.9888,0.0112	-2992.24
0.9767,0.0233	-3001.56
0.9813,0.0187	-2985.28
0.9833,0.0167	-2992.88
0.9795,0.0205	-2989.66
0.9841,0.0159	-3005.13
0.9847,0.0153	-2996.83
0.9768,0.0232	-3005.29
0.9837,0.0163	-3001.01
0.9871,0.0129	-2983.71
0.9815,0.0185	-3001.11
0.9802,0.0198	-3012.91
0.9829,0.0171	-3005.09
0.9756,0.0244	-3009.08
0.9802,0.0198	-2997.30
0.9863,0.0137	-2983.90
0.9783,0.0217	-3005.20
0.9804,0.0196	-2989.46
0.9818,0.0182	-2997.11
0.9726,0.0274	-3002.14
0.9804,0.0196	-3001.19
0.9878,0.0122	-2992.32
0.9782,0.0218	-3005.20
0.9804,0.0196	-3009.02
0.9839,0.0161	-2988.67
0.9791,0.0209	-3009.00
0.9837,0.0163	-3005.11
0.9881,0.0119	-2992.29
0.9748,0.0252	-3005.47
0.9819,0.0181	-2993.10
0.9870,0.0130	-2996.72
0.9760,0.0240	-3001.65
0.9836,0.0164	-3001.01
0.9878,0.0122	-3001.10
0.9666,0.0334	-3023.38
0.9830,0.0170	-3001.04
0.9853,0.0147	-2992.59
0.9765,0.0235	-2994.14
0.9852,0.0148	-2992.60
0.9896,0.0104	-2996.75
0.9634,0.0366	-3023.44
0.9834,0.0166	-2996.94
0.9899,0.0101	-2987.60
0.9777,0.0223	-3001.45
0.9851,0.0149	-2992.62
0.9897,0.0103	-2978.48
0.9589,0.0411	-3020.53
0.9842,0.0158	-3001.00
0.9918,0.0082	-2992.18
0.9800,0.0200	-2997.33
0.9870,0.0130	-2983.74
0.9914,0.0086	-2982.68
0.9578,0.0422	-3011.28
0.9845,0.0155	-2996.85
0.9907,0.0093	-2992.17
0.9793,0.0207	-3005.14
0.9854,0.0146	-3005.21
0.9920,0.0080	-2982.54
0.9606,0.0394	-3001.22
0.9860,0.0140	-3005.27
0.9930,0.0070	-2977.40
0.9799,0.0201	-2993.47
0.9837,0.0163	-3009.22
0.9905,0.0095	-2982.86
0.9586,0.0414	-3014.27
0.9847,0.0153	-2984.33
0.9897,0.0103	-3001.33
0.9784,0.0216	-2993.75
0.9804,0.0196	-3001.19
0.9897,0.0103	-2992.19
0.9487,0.0513	-3027.64
0.9872,0.0128	-2996.72
0.9898,0.0102	-2978.47
0.9779,0.0221	-3012.80
0.9818,0.0182	-2989.13
0.9932,0.0068	-2992.28
0.9466,0.0534	-3039.38
0.9895,0.0105	-2978.57
0.9904,0.0096	-2992.17
0.9774,0.0226	-3005.25
0.9793,0.0207	-3028.27
0.9938,0.0062	-2992.35
0.9527,0.0473	-3021.24
0.9861,0.0139	-3005.28
0.9881,0.0119	-2992.29
0.9746,0.0254	-3005.49
0.9735,0.0265	-3002.01
0.9928,0.0072	-2987.31
0.9557,0.0443	-3033.16
0.9850,0.0150	-3001.00
0.9849,0.0151	-3009.36
0.9729,0.0271	-3002.09
0.9761,0.0239	-3005.35
0.9926,0.0074	-2982.43
0.9475,0.0525	-3039.35
0.9798,0.0202	-3001.25
0.9841,0.0159	-2984.51
0.9638,0.0362	-3010.31
0.9810,0.0190	-3020.87
0.9912,0.0088	-2987.44
0.9531,0.0469	-3015.16
0.9788,0.0212	-3005.17
0.9837,0.0163	-2988.72
0.9685,0.0315	-3006.25
0.9804,0.0196	-3001.19
0.9906,0.0094	-2987.51
0.9629,0.0371	-3013.69
0.9780,0.0220	-3012.80
0.9845,0.0155	-2996.85
0.9736,0.0264	-3009.20
0.9862,0.0138	-2996.74
0.9915,0.0085	-2992.17
0.9606,0.0394	-3033.16
0.9786,0.0214	-3012.82
0.9811,0.0189	-3016.94
0.9685,0.0315	-3006.25
0.9850,0.0150	-2996.81
0.9904,0.0096	-3001.44
0.9526,0.0474	-3051.26
0.9817,0.0183	-3017.02
0.9854,0.0146	-3005.21
0.9687,0.0313	-3009.66
0.9831,0.0169	-2996.97
0.9916,0.0084	-2982.64
0.9502,0.0498	-3033.38
0.9837,0.0163	-2996.91
0.9834,0.0166	-3001.02
0.9729,0.0271	-3009.25
0.9852,0.0148	-3009.39
0.9911,0.0089	-2992.16
0.9591,0.0409	-3026.83
0.9818,0.0182	-2997.10
0.9812,0.0188	-2993.22
0.9717,0.0283	-2998.74
0.9854,0.0146	-2988.37
0.9909,0.0091	-2987.48
0.9557,0.0443	-3027.02
0.9829,0.0171	-3005.09
0.9796,0.0204	-2989.64
0.9705,0.0295	-3009.46
0.9864,0.0136	-2988.17
0.9912,0.0088	-2982.72
0.9611,0.0389	-3026.75
0.9831,0.0169	-2984.79
0.9770,0.0230	-2997.78
0.9613,0.0387	-3013.90
0.9878,0.0122	-3005.50
0.9916,0.0084	-2996.95
0.9639,0.0361	-3003.72
0.9863,0.0137	-2992.47
0.9798,0.0202	-2997.36
0.9558,0.0442	-3023.94
0.9890,0.0110	-2996.72
0.9908,0.0092	-2996.85
0.9683,0.0317	-3019.96
0.9874,0.0126	-2987.99
0.9721,0.0279	-2998.66
0.9497,0.0503	-3012.85
0.9859,0.0141	-2996.76
0.9918,0.0082	-2992.18
0.9712,0.0288	-2998.85
0.9887,0.0113	-2992.24
0.9762,0.0238	-3009.06
0.9582,0.0418	-3017.47
0.9877,0.0123	-2992.32
0.9915,0.0085	-2982.65
0.9729,0.0271	-2991.34
0.9885,0.0115	-2987.81
0.9795,0.0205	-2993.54
0.9682,0.0318	-3016.55
0.9885,0.0115	-2996.71
0.9919,0.0081	-2992.18
0.9654,0.0346	-3013.40
0.9888,0.0112	-3001.20
0.9697,0.0303	-2992.21
0.9716,0.0284	-3016.43
0.9923,0.0077	-2987.35
0.9936,0.0064	-2987.28
0.9639,0.0361	-3039.85
0.9885,0.0115	-2978.91
0.9705,0.0295	-3023.44
0.9736,0.0264	-2998.39
0.9906,0.0094	-3001.49
0.9941,0.0059	-2977.03
0.9570,0.0430	-3026.93
0.9861,0.0139	-3001.01
0.9625,0.0375	-3007.25
0.9821,0.0179	-3009.09
0.9907,0.0093	-2987.50
0.9944,0.0056	-2976.94
0.9612,0.0388	-3017.12
0.9867,0.0133	-2996.73
0.9648,0.0352	-3013.47
0.9833,0.0167	-2996.95
0.9901,0.0099	-2987.57
0.9946,0.0054	-2982.08
0.9619,0.0381	-3033.19
0.9878,0.0122	-2983.51
0.9603,0.0397	-3014.03
0.9786,0.0214	-2993.70
0.9902,0.0098	-2987.56
0.9938,0.0062	-2992.35
0.9653,0.0347	-3006.76
0.9861,0.0139	-2996.75
0.9589,0.0411	-3026.83
0.9838,0.0162	-3005.12
0.9918,0.0082	-2982.58
0.9937,0.0063	-2982.22
0.9686,0.0314	-3019.96
0.9905,0.0095	-2982.87
0.9598,0.0402	-3023.62
0.9823,0.0177	-2989.01
0.9907,0.0093	-2992.17
0.9928,0.0072	-2992.24
0.9677,0.0323	-3013.18
0.9900,0.0100	-2996.78
0.9679,0.0321	-3013.16
0.9836,0.0164	-2992.83
0.9898,0.0102	-2996.76
0.9926,0.0074	-2982.43
0.9693,0.0307	-3013.05
0.9910,0.0090	-2987.47
0.9700,0.0300	-3009.52
0.9841,0.0159	-2992.76
0.9893,0.0107	-2987.68
0.9899,0.0101	-2992.18
0.9716,0.0284	-3009.36
0.9923,0.0077	-2987.34
0.9744,0.0256	-3030.98
0.9839,0.0161	-2996.89
0.9875,0.0125	-2992.34
0.9888,0.0112	-3001.20
0.9702,0.0298	-3009.50
0.9915,0.0085	-2977.88
0.9688,0.0312	-3006.21
0.9840,0.0160	-3001.01
0.9900,0.0100	-2978.39
0.9915,0.0085	-2982.65
0.9783,0.0217	-2997.58
0.9914,0.0086	-2996.91
0.9684,0.0316	-3006.27
0.9831,0.0169	-2992.91
0.9910,0.0090	-2982.76
0.9913,0.0087	-2992.17
0.9793,0.0207	-2989.71
0.9907,0.0093	-2987.50
0.9607,0.0393	-3029.96
0.9863,0.0137	-2988.18
0.9890,0.0110	-2987.72
0.9895,0.0105	-2992.20
0.9796,0.0204	-3001.26
0.9915,0.0085	-2982.66
0.9587,0.0413	-3036.28
0.9832,0.0168	-2996.96
0.9877,0.0123	-2987.93
0.9881,0.0119	-2992.29
0.9766,0.0234	-2994.12
0.9902,0.0098	-2987.56
0.9518,0.0482	-3048.21
0.9819,0.0181	-3005.08
0.9911,0.0089	-2982.73
0.9862,0.0138	-2992.47
0.9726,0.0274	-3002.14
0.9886,0.0114	-2978.86
0.9518,0.0482	-3048.21
0.9846,0.0154	-2992.68
0.9894,0.0106	-2996.74
0.9861,0.0139	-2996.75
0.9682,0.0318	-2999.46
0.9864,0.0136	-2979.60
0.9448,0.0552	-3030.94
0.9873,0.0127	-2988.00
0.9901,0.0099	-2987.57
0.9827,0.0173	-2992.96
0.9704,0.0296	-3002.50
0.9845,0.0155	-2996.85
0.9482,0.0518	-3024.78
0.9886,0.0114	-2987.79
0.9896,0.0104	-2992.19
0.9826,0.0174	-3005.09
0.9662,0.0338	-3013.32
0.9874,0.0126	-3001.08
0.9522,0.0478	-3057.21
0.9882,0.0118	-2987.85
0.9911,0.0089	-3006.30
0.9825,0.0175	-2988.97
0.9639,0.0361	-3016.86
0.9881,0.0119	-3014.39
0.9510,0.0490	-3036.30
0.9804,0.0196	-2993.36
0.9924,0.0076	-2987.34
0.9852,0.0148	-3005.20
0.9704,0.0296	-3005.99
0.9885,0.0115	-2996.71
0.9596,0.0404	-3014.13
0.9805,0.0195	-3012.94
0.9931,0.0069	-2992.27
0.9856,0.0144	-3001.00
0.9738,0.0262	-3005.57
0.9907,0.0093	-2992.16
0.9536,0.0464	-3030.20
0.9796,0.0204	-3001.26
0.9930,0.0070	-2987.30
0.9814,0.0186	-3001.12
0.9744,0.0256	-2990.94
0.9886,0.0114	-2983.32
0.9516,0.0484	-3036.28
0.9787,0.0213	-2989.87
0.9918,0.0082	-2987.38
0.9798,0.0202	-3005.12
0.9780,0.0220	-3005.21
0.9865,0.0135	-3005.32
0.9509,0.0491	-3039.27
0.9804,0.0196	-3005.10
0.9916,0.0084	-2992.17
0.9777,0.0223	-3001.45
0.9792,0.0208	-3001.29
0.9869,0.0131	-2996.72
0.9565,0.0435	-3045.51
0.9805,0.0195	-3012.94
0.9905,0.0095	-2992.17
0.9728,0.0272	-3005.68
0.9801,0.0199	-3005.11
0.9883,0.0117	-2983.40
0.9548,0.0452	-3014.87
0.9842,0.0158	-2984.47
0.9934,0.0066	-2977.27
0.9715,0.0285	-2998.78
0.9804,0.0196	-3005.10
0.9880,0.0120	-2992.30
0.9478,0.0522	-3024.84
0.9814,0.0186	-3005.09
0.9940,0.0060	-2992.40
0.9720,0.0280	-3016.42
0.9812,0.0188	-3001.13
0.9867,0.0133	-2996.73
0.9467,0.0533	-3027.87
0.9835,0.0165	-3005.11
0.9954,0.0046	-2976.58
0.9738,0.0262	-2994.73
0.9856,0.0144	-3009.45
0.9863,0.0137	-2988.19
0.9633,0.0367	-3020.18
0.9790,0.0210	-3001.32
0.9955,0.0045	-2987.36
0.9746,0.0254	-2987.25
0.9832,0.0168	-2992.88
0.9879,0.0121	-3005.51
0.9700,0.0300	-3012.99
0.9784,0.0216	-3009.00
0.9962,0.0038	-2976.32
0.9773,0.0227	-2997.73
0.9838,0.0162	-2988.69
0.9874,0.0126	-3005.44
0.9687,0.0313	-3009.66
0.9764,0.0236	-3012.77
0.9956,0.0044	-2992.80
0.9738,0.0262	-3009.19
0.9821,0.0179	-3009.09
0.9867,0.0133	-2996.73
0.9740,0.0260	-3005.55
0.9783,0.0217	-3001.39
0.9964,0.0036	-2976.27
0.9676,0.0324	-3003.00
0.9792,0.0208	-2989.73
0.9859,0.0141	-2988.26
0.9733,0.0267	-3005.63
0.9770,0.0230	-2986.52
0.9957,0.0043	-2998.26
0.9651,0.0349	-3013.44
0.9786,0.0214	-3031.93
0.9867,0.0133	-2992.42
0.9743,0.0257	-3001.89
0.9780,0.0220	-3009.01
0.9947,0.0053	-2976.82
0.9656,0.0344	-3030.05
0.9813,0.0187	-3005.09
0.9880,0.0120	-2996.71
0.9779,0.0221	-3009.01
0.9788,0.0212	-2986.00
0.9945,0.0055	-2992.49
0.9678,0.0322	-2999.55
0.9771,0.0229	-3012.78
0.9895,0.0105	-3005.84
0.9786,0.0214	-3012.82
0.9801,0.0199	-2997.31
0.9940,0.0060	-2987.28
0.9752,0.0248	-3005.43
0.9748,0.0252	-3001.81
0.9889,0.0111	-2996.72
0.9794,0.0206	-3009.00
0.9826,0.0174	-2997.02
0.9935,0.0065	-2982.26
0.9829,0.0171	-3001.04
0.9742,0.0258	-3012.79
0.9881,0.0119	-2992.29
0.9736,0.0264	-2994.76
0.9835,0.0165	-2996.94
0.9929,0.0071	-2977.42
0.9861,0.0139	-3018.07
0.9731,0.0269	-3023.59
0.9871,0.0129	-2983.70
0.9666,0.0334	-3030.11
0.9866,0.0134	-2996.73
0.9926,0.0074	-2992.22
0.9862,0.0138	-2996.75
0.9727,0.0273	-3009.27
0.9814,0.0186	-3024.92
0.9664,0.0336	-2999.85
0.9837,0.0163	-3013.32
0.9925,0.0075	-2982.44
0.9831,0.0169	-2996.96
0.9648,0.0352	-3003.53
0.9829,0.0171	-3001.04
0.9704,0.0296	-3016.46
0.9863,0.0137	-2988.18
0.9924,0.0076	-2992.21
0.9782,0.0218	-2993.79
0.9718,0.0282	-2998.73
0.9855,0.0145	-3001.00
0.9745,0.0255	-3009.14
0.9857,0.0143	-2984.08
0.9925,0.0075	-2982.44
0.9819,0.0181	-3001.09
0.9670,0.0330	-3013.24
0.9859,0.0141	-2992.51
0.9715,0.0285	-2998.78
0.9824,0.0176	-2997.04
0.9926,0.0074	-2982.42
0.9798,0.0202	-3005.12
0.9698,0.0302	-3006.07
0.9869,0.0131	-2988.08
0.9730,0.0270	-3023.58
0.9802,0.0198	-2993.41
0.9924,0.0076	-2977.58
0.9810,0.0190	-3009.04
0.9687,0.0313	-3030.25
0.9851,0.0149	-2984.23
0.9724,0.0276	-3009.29
0.9819,0.0181	-2997.10
0.9936,0.0064	-2982.24
0.9850,0.0150	-2996.81
0.9716,0.0284	-2998.77
0.9848,0.0152	-2992.65
0.9604,0.0396	-3020.40
0.9835,0.0165	-2980.57
0.9924,0.0076	-2982.47
0.9856,0.0144	-2992.55
0.9734,0.0266	-3005.62
0.9842,0.0158	-2984.49
0.9634,0.0366	-3020.17
0.9832,0.0168	-3001.03
0.9920,0.0080	-3006.64
0.9801,0.0199	-2993.42
0.9711,0.0289	-3012.93
0.9825,0.0175	-2997.03
0.9643,0.0357	-3020.12
0.9892,0.0108	-2983.17
0.9903,0.0097	-2987.55
0.9803,0.0197	-2993.38
0.9690,0.0310	-3016.51
0.9797,0.0203	-2989.61
0.9667,0.0333	-3020.01
0.9891,0.0109	-3005.74
0.9899,0.0101	-2996.77
0.9872,0.0128	-2992.37
0.9692,0.0308	-3019.95
0.9765,0.0235	-3016.50
0.9676,0.0324	-2996.20
0.9866,0.0134	-3001.03
0.9917,0.0083	-2982.61
0.9854,0.0146	-2996.79
0.9731,0.0269	-3005.65
0.9758,0.0242	-3001.68
0.9680,0.0320	-3013.15
0.9866,0.0134	-2988.13
0.9932,0.0068	-2982.31
0.9893,0.0107	-3001.26
0.9729,0.0271	-3009.26
0.9720,0.0280	-3023.52
0.9676,0.0324	-3013.19
0.9867,0.0133	-2988.11
0.9930,0.0070	-2987.30
0.9902,0.0098	-2982.93
0.9736,0.0264	-3005.59
0.9769,0.0231	-2982.83
0.9652,0.0348	-3003.46
0.9888,0.0112	-2983.27
0.9924,0.0076	-2987.33
0.9903,0.0097	-2982.91
0.9706,0.0294	-2998.96
0.9756,0.0244	-3005.39
0.9647,0.0353	-3020.09
0.9865,0.0135	-2983.85
0.9929,0.0071	-2987.31
0.9900,0.0100	-2987.59
0.9699,0.0301	-3023.42
0.9743,0.0257	-2998.25
0.9669,0.0331	-3020.00
0.9846,0.0154	-2984.36
0.9947,0.0053	-2982.06
0.9909,0.0091	-2978.09
0.9732,0.0268	-3005.64
0.9747,0.0253	-3009.13
0.9703,0.0297	-3006.00
0.9837,0.0163	-2992.82
0.9957,0.0043	-2976.50
0.9902,0.0098	-2992.17
0.9766,0.0234	-3016.50
0.9723,0.0277	-2998.63
0.9604,0.0396	-3033.15
0.9795,0.0205	-3012.87
0.9953,0.0047	-2976.62
0.9903,0.0097	-2987.54
0.9723,0.0277	-3009.30
0.9768,0.0232	-3012.77
0.9564,0.0436	-3011.52
0.9797,0.0203	-2997.37
0.9958,0.0042	-2976.47
0.9916,0.0084	-2977.86
0.9732,0.0268	-3016.41
0.9748,0.0252	-3001.81
0.9472,0.0528	-3056.68
0.9817,0.0183	-2989.15
0.9957,0.0043	-2987.39
0.9927,0.0073	-2982.40
0.9709,0.0291	-3016.44
0.9775,0.0225	-3005.25
0.9509,0.0491	-3027.42
0.9848,0.0152	-2996.83
0.9964,0.0036	-2981.88
0.9929,0.0071	-2977.44
0.9727,0.0273	-2994.98
0.9820,0.0180	-2985.09
0.9550,0.0450	-3014.85
0.9867,0.0133	-2988.12
0.9970,0.0030	-2976.06
0.9911,0.0089	-2982.75
0.9782,0.0218	-3028.02
0.9838,0.0162	-2996.91
0.9602,0.0398	-3042.70
0.9879,0.0121	-2983.51
0.9970,0.0030	-2987.69
0.9895,0.0105	-2987.65
0.9780,0.0220	-2993.83
0.9837,0.0163	-2996.92
0.9579,0.0421	-3020.64
0.9922,0.0078	-2987.35
0.9975,0.0025	-2975.91
0.9892,0.0108	-2983.18
0.9745,0.0255	-2998.21
0.9869,0.0131	-2988.07
0.9644,0.0356	-3020.11
0.9913,0.0087	-2977.96
0.9976,0.0024	-2981.90
0.9896,0.0104	-2992.19
0.9746,0.0254	-3016.43
0.9844,0.0156	-2980.26
0.9692,0.0308	-3019.95
0.9905,0.0095	-2987.52
0.9973,0.0027	-2981.87
0.9882,0.0118	-2992.28
0.9781,0.0219	-3005.20
0.9864,0.0136	-2983.89
0.9716,0.0284	-3019.96
0.9897,0.0103	-2987.62
0.9971,0.0029	-2976.01
0.9884,0.0116	-2992.27
0.9765,0.0235	-2997.86
0.9843,0.0157	-3001.00
0.9692,0.0308	-3030.30
0.9884,0.0116	-2987.83
0.9977,0.0023	-2981.90
0.9859,0.0141	-2984.01
0.9719,0.0281	-3009.34
0.9835,0.0165	-2980.59
0.9699,0.0301	-3023.42
0.9888,0.0112	-2983.29
0.9975,0.0025	-2975.90
0.9837,0.0163	-3001.01
0.9741,0.0259	-2994.66
0.9833,0.0167	-2988.80
0.9694,0.0306	-3009.58
0.9873,0.0127	-2983.65
0.9975,0.0025	-2981.89
0.9855,0.0145	-2979.92
0.9753,0.0247	-3016.45
0.9781,0.0219	-3005.21
0.9791,0.0209	-3012.85
0.9834,0.0166	-2992.85
0.9977,0.0023	-2975.83
0.9842,0.0158	-2980.35
0.9734,0.0266	-3005.62
0.9795,0.0205	-2993.53
0.9802,0.0198	-3009.01
0.9806,0.0194	-3001.17
0.9975,0.0025	-2975.90
0.9839,0.0161	-3009.23
0.9745,0.0255	-3005.50
0.9799,0.0201	-2997.35
0.9806,0.0194	-2993.33
0.9791,0.0209	-3001.31
0.9971,0.0029	-2993.55
0.9843,0.0157	-2992.72
0.9766,0.0234	-3009.04
0.9802,0.0198	-3009.01
0.9834,0.0166	-2996.94
0.9820,0.0180	-2993.08
0.9974,0.0026	-2987.81
0.9855,0.0145	-2992.57
0.9784,0.0216	-2989.93
0.9778,0.0222	-2997.65
0.9805,0.0195	-3005.10
0.9834,0.0166	-3001.02
0.9972,0.0028	-2975.99
0.9863,0.0137	-3001.02
0.9799,0.0201	-2997.35
0.9784,0.0216	-3009.00
0.9792,0.0208	-2985.89
0.9880,0.0120	-2987.89
0.9975,0.0025	-2981.89
0.9853,0.0147	-3005.20
0.9811,0.0189	-2993.24
0.9776,0.0224	-3005.24
0.9815,0.0185	-2993.17
0.9866,0.0134	-2988.13
0.9972,0.0028	-2975.99
0.9856,0.0144	-3005.23
0.9873,0.0127	-2996.71
0.9763,0.0237	-3012.77
0.9843,0.0157	-2996.86
0.9877,0.0123	-2996.71
0.9963,0.0037	-2987.48
0.9850,0.0150	-3005.18
0.9882,0.0118	-2987.85
0.9801,0.0199	-2993.42
0.9847,0.0153	-2996.83
0.9882,0.0118	-2983.42
0.9953,0.0047	-2976.63
0.9832,0.0168	-3001.03
0.9905,0.0095	-2987.52
0.9792,0.0208	-3009.00
0.9838,0.0162	-3001.01
0.9884,0.0116	-2983.38
0.9956,0.0044	-2987.37
0.9855,0.0145	-2984.13
0.9901,0.0099	-2987.57
0.9790,0.0210	-2993.63
0.9847,0.0153	-3005.16
0.9888,0.0112	-2992.24
0.9958,0.0042	-2992.86
0.9847,0.0153	-3005.16
0.9904,0.0096	-2978.25
0.9806,0.0194	-3016.86
0.9855,0.0145	-2992.56
0.9898,0.0102	-2983.03
0.9950,0.0050	-2982.01
0.9860,0.0140	-2992.50
0.9898,0.0102	-2987.61
0.9765,0.0235	-3023.96
0.9829,0.0171	-2996.98
0.9894,0.0106	-2987.67
0.9964,0.0036	-2976.25
0.9851,0.0149	-3005.19
0.9919,0.0081	-2996.99
0.9772,0.0228	-3016.54
0.9865,0.0135	-2988.14
0.9884,0.0116	-2987.82
0.9954,0.0046	-2987.35
0.9881,0.0119	-3001.13
0.9937,0.0063	-2987.28
0.9794,0.0206	-2993.55
0.9874,0.0126	-2996.71
0.9875,0.0125	-2983.60
0.9956,0.0044	-2981.95
0.9903,0.0097	-2982.91
0.9925,0.0075	-2987.33
0.9810,0.0190	-3001.15
0.9874,0.0126	-3001.07
0.9867,0.0133	-3001.03
0.9962,0.0038	-2981.89
0.9916,0.0084	-2987.41
0.9914,0.0086	-2982.68
0.9795,0.0205	-3005.13
0.9850,0.0150	-2984.26
0.9879,0.0121	-2983.51
0.9967,0.0033	-2981.87
0.9902,0.0098	-2982.94
0.9924,0.0076	-2992.21
0.9726,0.0274	-3019.98
0.9840,0.0160	-2988.66
0.9889,0.0111	-2978.75
0.9965,0.0035	-2981.88
0.9876,0.0124	-2987.96
0.9924,0.0076	-2977.61
0.9724,0.0276	-3019.98
0.9832,0.0168	-3013.23
0.9870,0.0130	-2979.40
0.9958,0.0042	-2976.47
0.9863,0.0137	-2983.90
0.9924,0.0076	-2982.46
0.9687,0.0313	-2999.35
0.9826,0.0174	-2997.01
0.9864,0.0136	-2988.16
0.9945,0.0055	-2982.10
0.9872,0.0128	-3005.40
0.9932,0.0068	-2992.27
0.9633,0.0367	-3010.37
0.9850,0.0150	-2988.44
0.9886,0.0114	-2983.32
0.9951,0.0049	-2992.63
0.9870,0.0130	-2996.72
0.9919,0.0081	-2992.18
0.9693,0.0307	-3009.59
0.9866,0.0134	-2992.43
0.9882,0.0118	-3001.13
0.9955,0.0045	-2981.95
0.9852,0.0148	-2992.61
0.9919,0.0081	-2987.37
0.9671,0.0329	-3003.09
0.9871,0.0129	-2992.38
0.9881,0.0119	-2987.87
0.9959,0.0041	-2981.92
0.9842,0.0158	-2988.60
0.9923,0.0077	-3001.91
0.9735,0.0265	-3020.02
0.9873,0.0127	-2983.65
0.9893,0.0107	-2992.21
0.9952,0.0048	-2987.32
0.9861,0.0139	-2992.49
0.9922,0.0078	-2992.19
0.9738,0.0262	-3012.80
0.9872,0.0128	-2992.37
0.9876,0.0124	-2992.33
0.9956,0.0044	-2987.37
0.9866,0.0134	-2996.73
0.9915,0.0085	-2982.65
0.9762,0.0238	-2986.78
0.9869,0.0131	-2996.72
0.9850,0.0150	-2996.81
0.9955,0.0045	-2987.35
0.9879,0.0121	-2992.30
0.9917,0.0083	-3001.74
0.9736,0.0264	-2998.37
0.9892,0.0108	-2992.22
0.9827,0.0173	-2997.01
0.9961,0.0039	-2993.00
0.9871,0.0129	-3001.05
0.9926,0.0074	-2997.12
0.9744,0.0256	-3020.07
0.9906,0.0094	-2978.18
0.9811,0.0189	-3009.04
0.9958,0.0042	-2981.93
0.9877,0.0123	-3009.88
0.9934,0.0066	-2982.27
0.9727,0.0273	-3005.70
0.9881,0.0119	-2992.29
0.9805,0.0195	-2993.34
0.9951,0.0049	-2992.63
0.9884,0.0116	-2987.82
0.9931,0.0069	-2977.37
0.9800,0.0200	-3020.69
0.9874,0.0126	-2992.35
0.9752,0.0248	-3009.10
0.9949,0.0051	-2982.03
0.9893,0.0107	-3010.32
0.9933,0.0067	-2977.28
0.9783,0.0217	-3005.20
0.9882,0.0118	-2987.86
0.9812,0.0188	-3001.13
0.9953,0.0047	-2992.68
0.9918,0.0082	-2987.38
0.9936,0.0064	-2977.18
0.9809,0.0191	-2997.21
0.9874,0.0126	-2992.35
0.9826,0.0174	-2984.90
0.9956,0.0044	-2981.95
0.9932,0.0068	-2982.31
0.9935,0.0065	-2997.35
0.9819,0.0181	-3009.07
0.9837,0.0163	-2996.91
0.9836,0.0164	-2992.83
0.9945,0.0055	-2992.48
0.9935,0.0065	-2982.25
0.9928,0.0072	-2992.24
0.9797,0.0203	-3001.25
0.9846,0.0154	-2988.53
0.9794,0.0206	-2997.42
0.9955,0.0045	-2976.55
0.9939,0.0061	-2987.28
0.9910,0.0090	-2982.76
0.9756,0.0244	-3012.77
0.9837,0.0163	-2992.82
0.9756,0.0244	-3005.40
0.9961,0.0039	-2992.97
0.9942,0.0058	-2982.14
0.9919,0.0081	-2982.56
0.9760,0.0240	-3009.06
0.9829,0.0171	-2984.85
0.9755,0.0245	-3009.09
0.9964,0.0036	-2976.27
0.9938,0.0062	-2992.35
0.9922,0.0078	-2992.20
0.9742,0.0258	-3023.69
0.9842,0.0158	-2992.74
0.9787,0.0213	-3005.17
0.9957,0.0043	-2992.84
0.9922,0.0078	-2982.50
0.9920,0.0080	-2992.19
0.9720,0.0280	-3002.23
0.9823,0.0177	-2997.05
0.9768,0.0232	-2997.81
0.9964,0.0036	-2987.51
0.9915,0.0085	-2987.41
0.9933,0.0067	-2982.29
0.9711,0.0289	-3009.41
0.9828,0.0172	-2988.90
0.9811,0.0189	-2989.29
0.9959,0.0041	-2976.43
0.9928,0.0072	-2982.39
0.9931,0.0069	-2982.32
0.9721,0.0279	-3002.22
0.9797,0.0203	-2993.51
0.9805,0.0195	-2989.43
0.9959,0.0041	-2981.92
0.9907,0.0093	-2992.16
0.9917,0.0083	-2987.40
0.9655,0.0345	-3016.72
0.9776,0.0224	-3012.79
0.9760,0.0240	-3027.58
0.9956,0.0044	-2981.95
0.9905,0.0095	-3001.46
0.9927,0.0073	-2982.41
0.9660,0.0340	-3006.65
0.9827,0.0173	-3021.24
0.9744,0.0256	-3009.15
0.9949,0.0051	-2987.31
0.9888,0.0112	-2992.24
0.9908,0.0092	-2987.48
0.9601,0.0399	-3033.15
0.9804,0.0196	-2997.27
0.9726,0.0274	-2994.99
0.9945,0.0055	-2987.29
0.9885,0.0115	-2978.89
0.9934,0.0066	-2982.27
0.9650,0.0350	-3016.76
0.9747,0.0253	-2998.17
0.9718,0.0282	-3016.42
0.9922,0.0078	-2982.50
0.9872,0.0128	-2992.37
0.9921,0.0079	-2992.19
0.9511,0.0489	-3021.47
0.9703,0.0297	-3005.99
0.9638,0.0362	-3039.83
0.9916,0.0084	-2987.40
0.9900,0.0100	-2987.58
0.9897,0.0103	-2992.19
0.9601,0.0399	-3026.78
0.9688,0.0312	-3013.08
0.9720,0.0280	-3009.33
0.9905,0.0095	-2987.52
0.9872,0.0128	-2988.03
0.9888,0.0112	-2996.72
0.9588,0.0412	-3026.84
0.9672,0.0328	-3003.07
0.9726,0.0274	-3002.14
0.9904,0.0096	-2992.17
0.9867,0.0133	-2988.11
0.9906,0.0094	-2982.86
0.9612,0.0388	-3029.96
0.9656,0.0344	-3020.05
0.9725,0.0275	-3002.15
0.9914,0.0086	-2977.94
0.9912,0.0088	-2992.17
0.9899,0.0101	-2992.18
0.9613,0.0387	-3013.89
0.9670,0.0330	-3006.48
0.9782,0.0218	-2997.59
0.9920,0.0080	-2982.55
0.9897,0.0103	-2987.62
0.9884,0.0116	-3001.15
0.9636,0.0364	-3033.26
0.9649,0.0351	-3003.51
0.9767,0.0233	-3001.56
0.9893,0.0107	-2987.68
0.9909,0.0091	-2982.79
0.9911,0.0089	-2987.46
0.9633,0.0367	-3016.91
0.9629,0.0371	-3023.46
0.9799,0.0201	-3028.45
0.9904,0.0096	-2978.26
0.9901,0.0099	-2992.18
0.9905,0.0095	-2987.52
0.9650,0.0350	-3013.45
0.9625,0.0375	-3033.21
0.9806,0.0194	-3016.86
0.9898,0.0102	-2978.47
0.9883,0.0117	-2996.71
0.9903,0.0097	-2987.55
0.9607,0.0393	-3023.57
0.9614,0.0386	-3023.53
0.9783,0.0217	-2997.58
0.9904,0.0096	-2987.53
0.9888,0.0112	-2992.24
0.9898,0.0102	-2996.76
0.9689,0.0311	-3023.39
0.9576,0.0424	-3008.20
0.9728,0.0272	-3002.11
0.9881,0.0119	-2987.87
0.9887,0.0113	-2992.24
0.9883,0.0117	-3001.15
0.9667,0.0333	-3006.54
0.9592,0.0408	-3029.98
0.9718,0.0282	-3023.51
0.9891,0.0109	-2992.22
0.9882,0.0118	-3014.43
0.9889,0.0111	-2992.23
0.9719,0.0281	-3002.25
0.9611,0.0389	-3020.34
0.9711,0.0289	-2998.87
0.9926,0.0074	-2992.23
0.9886,0.0114	-2983.33
0.9849,0.0151	-2992.64
0.9696,0.0304	-3023.41
0.9715,0.0285	-2998.78
0.9674,0.0326	-2996.25
0.9927,0.0073	-2977.48
0.9877,0.0123	-2987.94
0.9834,0.0166	-2988.79
0.9727,0.0273	-3019.99
0.9739,0.0261	-3012.80
0.9727,0.0273	-2998.54
0.9933,0.0067	-2982.28
0.9865,0.0135	-2992.44
0.9844,0.0156	-2984.41
0.9723,0.0277	-2998.64
0.9813,0.0187	-2981.32
0.9764,0.0236	-3012.77
0.9930,0.0070	-2987.30
0.9844,0.0156	-2992.71
0.9831,0.0169	-3009.16
0.9739,0.0261	-3001.94
0.9839,0.0161	-2988.66
0.9715,0.0285	-3002.32
0.9939,0.0061	-2982.18
0.9874,0.0126	-3001.08
0.9864,0.0136	-2996.74
0.9729,0.0271	-3023.57
0.9844,0.0156	-3001.00
0.9727,0.0273	-3019.99
0.9935,0.0065	-2987.28
0.9897,0.0103	-2992.19
0.9868,0.0132	-2988.10
0.9728,0.0272	-3005.68
0.9852,0.0148	-2988.41
0.9732,0.0268	-3023.60
0.9930,0.0070	-2992.26
0.9873,0.0127	-2983.64
0.9873,0.0127	-2988.01
0.9724,0.0276	-3009.29
0.9821,0.0179	-2989.05
0.9702,0.0298	-2999.05
0.9933,0.0067	-2987.29
0.9881,0.0119	-2992.29
0.9898,0.0102	-2992.19
0.9734,0.0266	-2994.82
0.9796,0.0204	-3009.00
0.9649,0.0351	-3016.77
0.9947,0.0053	-2976.82
0.9893,0.0107	-2992.21
0.9892,0.0108	-2992.21
0.9752,0.0248	-3001.76
0.9799,0.0201	-3009.01
0.9682,0.0318	-3023.38
0.9949,0.0051	-2992.59
0.9912,0.0088	-2987.44
0.9907,0.0093	-2987.49
0.9738,0.0262	-2998.34
0.9800,0.0200	-2993.43
0.9622,0.0378	-3023.49
0.9949,0.0051	-2997.87
0.9897,0.0103	-2987.63
0.9915,0.0085	-2987.41
0.9666,0.0334	-3009.91
0.9832,0.0168	-2996.96
0.9612,0.0388	-3049.22
0.9951,0.0049	-2982.01
0.9887,0.0113	-2992.25
0.9910,0.0090	-3001.56
0.9671,0.0329	-3016.61
0.9844,0.0156	-3001.00
0.9542,0.0458	-3030.16
0.9954,0.0046	-2981.97
0.9892,0.0108	-2996.73
0.9898,0.0102	-2983.04
0.9643,0.0357	-3023.42
0.9844,0.0156	-3009.29
0.9488,0.0512	-3030.55
0.9958,0.0042	-2981.93
0.9914,0.0086	-2987.42
0.9906,0.0094	-2992.17
0.9629,0.0371	-3010.44
0.9831,0.0169	-2992.90
0.9471,0.0529	-3027.83
0.9935,0.0065	-2977.24
0.9918,0.0082	-2982.60
0.9911,0.0089	-2987.45
0.9623,0.0377	-3017.01
0.9817,0.0183	-3009.07
0.9529,0.0471	-3009.19
0.9922,0.0078	-2987.35
0.9905,0.0095	-2982.88
0.9893,0.0107	-2987.69
0.9558,0.0442	-3027.01
0.9830,0.0170	-3013.21
0.9471,0.0529	-3033.59
0.9919,0.0081	-2987.38
0.9906,0.0094	-2987.50
0.9873,0.0127	-3001.06
0.9620,0.0380	-3023.50
0.9831,0.0169	-2988.83
0.9396,0.0604	-3045.28
0.9896,0.0104	-2987.63
0.9910,0.0090	-2982.77
0.9877,0.0123	-2983.55
0.9644,0.0356	-3020.11
0.9834,0.0166	-2992.85
0.9474,0.0526	-3042.24
0.9877,0.0123	-2992.32
0.9918,0.0082	-2982.59
0.9905,0.0095	-2982.87
0.9654,0.0346	-3006.75
0.9840,0.0160	-2992.77
0.9529,0.0471	-3027.23
0.9873,0.0127	-2996.71
0.9918,0.0082	-2992.18
0.9898,0.0102	-2992.19
0.9641,0.0359	-3026.71
0.9824,0.0176	-3001.06
0.9490,0.0510	-3024.69
0.9885,0.0115	-2983.36
0.9913,0.0087	-2982.69
0.9938,0.0062	-2977.13
0.9618,0.0382	-3020.29
0.9792,0.0208	-3001.29
0.9482,0.0518	-3039.32
0.9872,0.0128	-3005.41
0.9921,0.0079	-2987.36
0.9950,0.0050	-2976.74
0.9666,0.0334	-3013.28
0.9790,0.0210	-3012.84
0.9484,0.0516	-3033.50
0.9868,0.0132	-3001.04
0.9934,0.0066	-2982.27
0.9949,0.0051	-2987.31
0.9561,0.0439	-3023.91
0.9787,0.0213	-3012.83
0.9533,0.0467	-3021.17
0.9853,0.0147	-2996.79
0.9934,0.0066	-2992.30
0.9942,0.0058	-2982.13
0.9496,0.0504	-3021.67
0.9763,0.0237	-3016.49
0.9570,0.0430	-3005.21
0.9851,0.0149	-2984.23
0.9937,0.0063	-2992.34
0.9945,0.0055	-2992.49
0.9551,0.0449	-3042.34
0.9803,0.0197	-3009.01
0.9655,0.0345	-3013.40
0.9816,0.0184	-3001.10
0.9932,0.0068	-2987.29
0.9935,0.0065	-2982.26
0.9399,0.0601	-3034.27
0.9758,0.0242	-2997.99
0.9729,0.0271	-3016.41
0.9818,0.0182	-2993.13
0.9926,0.0074	-2992.22
0.9951,0.0049	-2992.63
0.9346,0.0654	-3042.90
0.9754,0.0246	-3005.41
0.9723,0.0277	-3002.19
0.9827,0.0173	-2992.97
0.9920,0.0080	-2977.74
0.9952,0.0048	-2981.99
0.9214,0.0786	-3064.06
0.9727,0.0273	-3009.27
0.9736,0.0264	-3012.81
0.9801,0.0199	-2997.31
0.9939,0.0061	-2977.08
0.9944,0.0056	-2987.28
0.9076,0.0924	-3048.80
0.9747,0.0253	-3009.13
0.9735,0.0265	-3009.21
0.9849,0.0151	-2992.65
0.9937,0.0063	-2982.21
0.9945,0.0055	-2982.10
0.8936,0.1064	-3064.08
0.9759,0.0241	-3005.37
0.9644,0.0356	-3020.11
0.9832,0.0168	-3017.30
0.9936,0.0064	-2987.28
0.9941,0.0059	-2977.02
0.8921,0.1079	-3064.28
0.9700,0.0300	-3002.56
0.9662,0.0338	-3020.02
0.9816,0.0184	-2997.13
0.9936,0.0064	-2982.23
0.9925,0.0075	-2992.21
0.9115,0.0885	-3048.18
0.9626,0.0374	-3023.47
0.9566,0.0434	-3045.51
0.9836,0.0164	-2988.73
0.9942,0.0058	-2982.14
0.9928,0.0072	-2992.23
0.9258,0.0742	-3038.76
0.9590,0.0410	-3020.53
0.9614,0.0386	-3007.45
0.9845,0.0155	-2992.69
0.9942,0.0058	-2992.42
0.9925,0.0075	-2977.57
0.9306,0.0694	-3051.06
0.9667,0.0333	-2993.05
0.9645,0.0355	-3020.11
0.9842,0.0158	-2996.87
0.9941,0.0059	-2982.16
0.9931,0.0069	-2987.30
0.9321,0.0679	-3050.98
0.9627,0.0373	-3016.97
0.9536,0.0464	-3042.29
0.9830,0.0170	-3001.04
0.9938,0.0062	-2992.35
0.9934,0.0066	-2992.30
0.9294,0.0706	-3035.66
0.9604,0.0396	-3014.03
0.9392,0.0608	-3028.88
0.9789,0.0211	-2993.64
0.9949,0.0051	-2982.04
0.9933,0.0067	-2992.29
0.9352,0.0648	-3066.88
0.9624,0.0376	-3033.21
0.9499,0.0501	-3039.28
0.9817,0.0183	-3009.07
0.9955,0.0045	-2981.96
0.9937,0.0063	-2977.16
0.9165,0.0835	-3057.04
0.9650,0.0350	-3006.81
0.9613,0.0387	-3020.32
0.9867,0.0133	-2988.11
0.9960,0.0040	-2992.95
0.9948,0.0052	-2997.83
0.9239,0.0761	-3056.52
0.9709,0.0291	-3016.44
0.9708,0.0292	-2998.92
0.9881,0.0119	-2983.44
0.9950,0.0050	-2976.72
0.9955,0.0045	-2992.76
0.9290,0.0710	-3048.59
0.9679,0.0321	-3033.59
0.9730,0.0270	-3002.07
0.9877,0.0123	-2987.93
0.9953,0.0047	-2976.62
0.9948,0.0052	-2982.05
0.9285,0.0715	-3038.38
0.9619,0.0381	-3033.19
0.9721,0.0279	-3005.77
0.9837,0.0163	-3013.31
0.9946,0.0054	-2976.86
0.9944,0.0056	-2997.65
0.9043,0.0957	-3060.58
0.9656,0.0344	-3020.05
0.9754,0.0246	-3012.77
0.9803,0.0197	-2993.38
0.9941,0.0059	-2977.03
0.9938,0.0062	-2987.28
0.9058,0.0942	-3073.99
0.9652,0.0348	-3003.47
0.9798,0.0202	-3005.12
0.9759,0.0241	-3001.67
0.9912,0.0088	-3006.34
0.9927,0.0073	-2987.32
0.9167,0.0833	-3052.24
0.9659,0.0341	-3013.35
0.9777,0.0223	-2993.88
0.9783,0.0217	-3001.39
0.9914,0.0086	-2987.42
0.9928,0.0072	-2987.31
0.9099,0.0901	-3043.80
0.9636,0.0364	-3007.06
0.9800,0.0200	-3009.01
0.9729,0.0271	-3009.25
0.9920,0.0080	-2992.19
0.9945,0.0055	-2982.09
0.9125,0.0875	-3069.14
0.9688,0.0312	-3033.70
0.9749,0.0251	-3005.46
0.9760,0.0240	-3005.36
0.9936,0.0064	-2992.33
0.9953,0.0047	-2976.64
0.9350,0.0650	-3034.87
0.9681,0.0319	-3013.14
0.9688,0.0312	-3002.78
0.9777,0.0223	-3009.01
0.9929,0.0071	-2987.31
0.9942,0.0058	-2992.42
0.9425,0.0575	-3036.79
0.9669,0.0331	-3026.75
0.9667,0.0333	-3023.37
0.9787,0.0213	-3001.35
0.9904,0.0096	-2992.17
0.9924,0.0076	-2997.08
0.9451,0.0549	-3019.53
0.9644,0.0356	-3023.41
0.9657,0.0343	-3003.36
0.9789,0.0211	-2997.49
0.9918,0.0082	-2987.38
0.9935,0.0065	-2982.26
0.9450,0.0550	-3028.08
0.9626,0.0374	-3016.98
0.9608,0.0392	-3036.36
0.9788,0.0212	-2989.85
0.9911,0.0089	-2978.02
0.9929,0.0071	-2982.36
0.9504,0.0496	-3039.28
0.9544,0.0456	-3021.03
0.9606,0.0394	-3029.96
0.9730,0.0270	-3005.66
0.9924,0.0076	-2992.21
0.9931,0.0069	-2992.27
0.9415,0.0585	-3042.43
0.9661,0.0339	-3009.99
0.9679,0.0321	-3013.16
0.9755,0.0245	-2998.04
0.9913,0.0087	-2996.91
0.9921,0.0079	-2982.53
0.9377,0.0623	-3031.81
0.9602,0.0398	-3007.68
0.9690,0.0310	-3006.18
0.9725,0.0275	-3037.82
0.9902,0.0098	-2992.17
0.9915,0.0085	-2992.17
0.9396,0.0604	-3037.05
0.9611,0.0389	-3026.75
0.9722,0.0278	-3005.75
0.9775,0.0225	-3016.56
0.9888,0.0112	-2987.76
0.9921,0.0079	-3011.53
0.9496,0.0504	-3024.61
0.9600,0.0400	-3010.89
0.9715,0.0285	-3016.43
0.9794,0.0206	-3005.14
0.9893,0.0107	-2987.68
0.9923,0.0077	-2982.48
0.9479,0.0521	-3013.23
0.9707,0.0293	-3005.95
0.9703,0.0297	-3002.52
0.9803,0.0197	-3005.11
0.9884,0.0116	-2987.82
0.9921,0.0079	-2992.19
0.9503,0.0497	-3033.38
0.9686,0.0314	-3016.53
0.9671,0.0329	-3019.99
0.9823,0.0177	-2997.05
0.9890,0.0110	-3005.73
0.9903,0.0097	-2987.55
0.9471,0.0529	-3033.59
0.9742,0.0258	-3005.53
0.9699,0.0301	-3006.06
0.9808,0.0192	-3005.09
0.9878,0.0122	-2983.51
0.9900,0.0100	-2978.40
0.9466,0.0534	-3030.75
0.9747,0.0253	-3016.43
0.9737,0.0263	-3009.19
0.9786,0.0214	-2997.53
0.9876,0.0124	-2987.95
0.9883,0.0117	-3001.14
0.9549,0.0451	-3027.07
0.9825,0.0175	-2997.03
0.9710,0.0290	-3026.97
0.9765,0.0235	-2994.14
0.9874,0.0126	-2983.64
0.9890,0.0110	-2992.22
0.9614,0.0386	-3001.02
0.9866,0.0134	-2988.13
0.9750,0.0250	-3020.10
0.9780,0.0220	-3005.21
0.9869,0.0131	-3005.37
0.9882,0.0118	-2996.71
0.9547,0.0453	-3030.14
0.9855,0.0145	-2988.34
0.9789,0.0211	-3009.00
0.9772,0.0228	-3016.54
0.9882,0.0118	-3005.56
0.9887,0.0113	-3001.19
0.9629,0.0371	-3029.97
0.9860,0.0140	-3001.01
0.9794,0.0206	-3005.14
0.9764,0.0236	-2997.88
0.9878,0.0122	-2992.31
0.9831,0.0169	-3005.10
0.9522,0.0478	-3021.31
0.9863,0.0137	-2988.18
0.9723,0.0277	-3012.86
0.9762,0.0238	-3001.63
0.9857,0.0143	-2988.31
0.9849,0.0151	-2988.46
0.9575,0.0425	-3033.13
0.9869,0.0131	-3009.68
0.9723,0.0277	-3009.30
0.9764,0.0236	-3012.77
0.9889,0.0111	-2992.23
0.9831,0.0169	-2992.91
0.9613,0.0387	-3007.47
0.9829,0.0171	-3009.14
0.9668,0.0332	-2996.40
0.9781,0.0219	-3027.99
0.9894,0.0106	-2983.14
0.9754,0.0246	-2994.37
0.9701,0.0299	-3002.54
0.9831,0.0169	-3013.22
0.9647,0.0353	-3013.48
0.9744,0.0256	-3001.86
0.9882,0.0118	-2992.28
0.9734,0.0266	-3002.01
0.9580,0.0420	-3020.63
0.9816,0.0184	-2997.13
0.9635,0.0365	-3013.62
0.9775,0.0225	-3016.56
0.9887,0.0113	-2987.77
0.9781,0.0219	-3009.00
0.9668,0.0332	-3016.63
0.9825,0.0175	-2988.98
0.9702,0.0298	-3006.02
0.9726,0.0274	-3012.85
0.9897,0.0103	-2983.05
0.9789,0.0211	-2997.48
0.9667,0.0333	-3020.01
0.9759,0.0241	-2997.96
0.9699,0.0301	-3023.42
0.9670,0.0330	-3006.48
0.9916,0.0084	-2996.94
0.9799,0.0201	-3001.23
0.9609,0.0391	-3017.16
0.9803,0.0197	-3020.73
0.9737,0.0263	-3016.42
0.9698,0.0302	-3016.48
0.9907,0.0093	-2987.50
0.9782,0.0218	-3016.61
0.9692,0.0308	-3019.95
0.9746,0.0254	-3012.78
0.9676,0.0324	-3019.98
0.9749,0.0251	-3023.76
0.9889,0.0111	-2987.74
0.9758,0.0242	-3005.38
0.9670,0.0330	-3023.37
0.9770,0.0230	-3005.28
0.9693,0.0307	-3030.30
0.9735,0.0265	-3009.21
0.9890,0.0110	-3001.23
0.9695,0.0305	-3002.66
0.9704,0.0296	-3002.49
0.9751,0.0249	-2998.10
0.9693,0.0307	-3019.95
0.9693,0.0307	-3019.95
0.9880,0.0120	-2987.89
0.9676,0.0324	-3026.77
0.9652,0.0348	-3013.43
0.9771,0.0229	-2986.50
0.9724,0.0276	-2998.61
0.9666,0.0334	-3016.65
0.9902,0.0098	-2987.56
0.9618,0.0382	-3039.64
0.9703,0.0297	-3012.97
0.9750,0.0250	-3027.44
0.9786,0.0214	-3005.18
0.9706,0.0294	-3016.45
0.9884,0.0116	-3001.16
0.9678,0.0322	-2996.14
0.9715,0.0285	-3009.37
0.9790,0.0210	-3009.00
0.9823,0.0177	-2997.05
0.9685,0.0315	-3006.26
0.9889,0.0111	-2987.74
0.9677,0.0323	-3019.98
0.9747,0.0253	-3005.48
0.9779,0.0221	-3016.59
0.9797,0.0203	-3005.13
0.9754,0.0246	-3012.77
0.9877,0.0123	-2996.71
0.9680,0.0320	-3016.56
0.9758,0.0242	-2990.58
0.9826,0.0174	-2997.02
0.9758,0.0242	-3005.38
0.9765,0.0235	-3005.32
0.9886,0.0114	-2987.79
0.9690,0.0310	-3013.06
0.9748,0.0252	-3012.78
0.9871,0.0129	-2996.72
0.9764,0.0236	-3012.77
0.9797,0.0203	-2997.37
0.9887,0.0113	-2983.31
0.9704,0.0296	-3012.96
0.9677,0.0323	-2992.79
0.9879,0.0121	-2987.91
0.9826,0.0174	-2988.96
0.9805,0.0195	-2997.27
0.9885,0.0115	-2987.81
0.9656,0.0344	-3020.05
0.9685,0.0315	-3016.53
0.9854,0.0146	-2996.79
0.9825,0.0175	-3001.06
0.9759,0.0241	-2994.26
0.9896,0.0104	-2983.08
0.9735,0.0265	-2998.40
0.9712,0.0288	-3026.99
0.9861,0.0139	-3009.54
0.9857,0.0143	-3005.24
0.9821,0.0179	-3005.08
0.9886,0.0114	-3010.09
0.9698,0.0302	-3013.01
0.9659,0.0341	-3016.69
0.9856,0.0144	-2992.55
0.9858,0.0142	-2992.52
0.9838,0.0162	-2988.70
0.9892,0.0108	-2983.18
0.9757,0.0243	-3005.38
0.9708,0.0292	-3016.44
0.9856,0.0144	-3001.00
0.9823,0.0177	-3001.07
0.9874,0.0126	-2992.35
0.9893,0.0107	-2996.73
0.9731,0.0269	-3009.24
0.9712,0.0288	-3009.40
0.9893,0.0107	-2987.69
0.9820,0.0180	-3017.07
0.9886,0.0114	-2983.32
0.9908,0.0092	-2987.49
0.9719,0.0281	-3002.25
0.9691,0.0309	-3013.06
0.9901,0.0099	-2987.57
0.9845,0.0155	-3001.00
0.9895,0.0105	-2987.65
0.9881,0.0119	-2987.87
0.9733,0.0267	-3002.03
0.9646,0.0354	-3013.49
0.9894,0.0106	-2983.13
0.9864,0.0136	-2988.18
0.9889,0.0111	-2983.25
0.9899,0.0101	-2978.42
0.9715,0.0285	-3019.96
0.9705,0.0295	-3005.97
0.9883,0.0117	-2996.71
0.9868,0.0132	-2996.73
0.9870,0.0130	-2992.39
0.9873,0.0127	-3005.42
0.9741,0.0259	-3009.17
0.9646,0.0354	-3020.10
0.9914,0.0086	-2987.42
0.9851,0.0149	-3005.19
0.9861,0.0139	-2988.23
0.9881,0.0119	-2996.71
0.9717,0.0283	-3002.27
0.9678,0.0322	-3026.78
0.9891,0.0109	-2996.73
0.9881,0.0119	-2983.44
0.9869,0.0131	-3001.04
0.9865,0.0135	-2996.73
0.9694,0.0306	-3019.95
0.9707,0.0293	-3002.44
0.9879,0.0121	-2987.91
0.9884,0.0116	-2996.71
0.9877,0.0123	-3005.48
0.9893,0.0107	-2996.74
0.9692,0.0308	-3023.40
0.9729,0.0271	-3023.58
0.9879,0.0121	-2987.91
0.9897,0.0103	-3001.33
0.9872,0.0128	-3001.06
0.9915,0.0085	-2987.41
0.9729,0.0271	-3009.25
0.9772,0.0228	-3012.78
0.9881,0.0119	-3014.40
0.9889,0.0111	-2983.24
0.9876,0.0124	-2992.33
0.9906,0.0094	-2992.17
0.9768,0.0232	-3009.03
0.9731,0.0269	-3002.06
0.9873,0.0127	-2996.71
0.9886,0.0114	-2996.71
0.9835,0.0165	-3001.02
0.9902,0.0098	-2987.56
0.9794,0.0206	-2997.41
0.9679,0.0321	-3023.38
0.9858,0.0142	-2988.28
0.9846,0.0154	-2992.68
0.9844,0.0156	-2988.57
0.9917,0.0083	-2987.39
0.9826,0.0174	-2997.02
0.9727,0.0273	-3002.12
0.9853,0.0147	-2992.58
0.9833,0.0167	-3005.10
0.9825,0.0175	-2997.03
0.9928,0.0072	-2977.45
0.9820,0.0180	-3001.08
0.9698,0.0302	-3009.53
0.9840,0.0160	-2988.64
0.9809,0.0191	-3001.15
0.9819,0.0181	-2993.10
0.9925,0.0075	-2982.45
0.9829,0.0171	-3005.09
0.9690,0.0310	-3009.62
0.9834,0.0166	-3001.02
0.9764,0.0236	-3009.05
0.9810,0.0190	-2989.31
0.9933,0.0067	-2982.29
0.9806,0.0194	-2993.34
0.9755,0.0245	-2990.68
0.9826,0.0174	-3009.12
0.9797,0.0203	-2997.38
0.9785,0.0215	-3001.37
0.9947,0.0053	-2976.83
0.9841,0.0159	-2992.75
0.9737,0.0263	-3009.19
0.9842,0.0158	-2992.74
0.9807,0.0193	-3001.17
0.9715,0.0285	-3002.32
0.9942,0.0058	-2992.43
0.9859,0.0141	-2992.51
0.9756,0.0244	-3005.39
0.9816,0.0184	-3001.10
0.9822,0.0178	-3005.08
0.9604,0.0396	-3014.02
0.9941,0.0059	-2977.01
0.9866,0.0134	-2988.14
0.9709,0.0291	-3016.44
0.9809,0.0191	-3020.86
0.9851,0.0149	-3005.18
0.9645,0.0355	-3020.11
0.9947,0.0053	-2987.29
0.9857,0.0143	-3001.00
0.9731,0.0269	-3016.41
0.9785,0.0215	-3005.19
0.9885,0.0115	-2996.71
0.9644,0.0356	-3016.81
0.9948,0.0052	-2987.30
0.9889,0.0111	-3005.71
0.9734,0.0266	-3016.42
0.9803,0.0197	-2989.48
0.9878,0.0122	-2992.31
0.9650,0.0350	-3013.44
0.9942,0.0058	-2982.13
0.9884,0.0116	-2987.82
0.9720,0.0280	-3005.78
0.9793,0.0207	-3005.14
0.9896,0.0104	-2987.64
0.9590,0.0410	-3017.37
0.9933,0.0067	-2997.28
0.9898,0.0102	-2996.76
0.9719,0.0281	-3012.88
0.9789,0.0211	-2993.65
0.9895,0.0105	-2987.65
0.9634,0.0366	-3026.71
0.9917,0.0083	-2996.95
0.9896,0.0104	-2983.08
0.9735,0.0265	-3009.21
0.9758,0.0242	-3012.77
0.9903,0.0097	-2996.80
0.9698,0.0302	-2999.13
0.9891,0.0109	-2992.22
0.9920,0.0080	-2987.36
0.9699,0.0301	-3002.59
0.9720,0.0280	-3009.33
0.9899,0.0101	-3005.94
0.9711,0.0289	-3005.89
0.9883,0.0117	-2987.84
0.9931,0.0069	-2982.33
0.9647,0.0353	-3026.71
0.9765,0.0235	-3005.32
0.9911,0.0089	-2996.88
0.9757,0.0243	-3012.77
0.9922,0.0078	-2992.19
0.9935,0.0065	-2992.32
0.9713,0.0287	-3002.35
0.9741,0.0259	-3020.05
0.9898,0.0102	-3005.91
0.9738,0.0262	-3001.95
0.9929,0.0071	-2992.24
0.9955,0.0045	-2976.57
0.9767,0.0233	-3012.77
0.9778,0.0222	-3012.80
0.9905,0.0095	-2992.17
0.9790,0.0210	-3001.32
0.9924,0.0076	-2982.47
0.9947,0.0053	-2982.06
0.9767,0.0233	-2997.84
0.9767,0.0233	-3001.57
0.9886,0.0114	-3001.18
0.9795,0.0205	-3016.74
0.9923,0.0077	-2982.48
0.9946,0.0054	-2976.86
0.9788,0.0212	-2989.85
0.9798,0.0202	-2993.48
0.9880,0.0120	-2987.89
0.9771,0.0229	-3012.78
0.9908,0.0092	-3010.90
0.9951,0.0049	-2982.01
0.9754,0.0246	-2998.06
0.9794,0.0206	-3001.27
0.9872,0.0128	-2988.02
0.9762,0.0238	-2997.91
0.9911,0.0089	-2987.46
0.9942,0.0058	-2982.13
0.9803,0.0197	-3005.11
0.9801,0.0199	-2997.31
0.9875,0.0125	-2992.34
0.9770,0.0230	-3020.28
0.9927,0.0073	-2992.23
0.9937,0.0063	-2982.22
0.9804,0.0196	-2997.28
0.9808,0.0192	-2997.22
0.9901,0.0099	-2987.57
0.9741,0.0259	-2998.28
0.9916,0.0084	-2992.17
0.9933,0.0067	-2987.29
0.9808,0.0192	-2997.23
0.9875,0.0125	-3018.56
0.9883,0.0117	-2987.84
0.9724,0.0276	-3005.73
0.9895,0.0105	-2992.20
0.9941,0.0059	-2992.40
0.9808,0.0192	-3012.96
0.9901,0.0099	-2987.57
0.9901,0.0099	-2992.18
0.9732,0.0268	-2994.86
0.9911,0.0089	-2987.45
0.9938,0.0062	-2987.28
0.9789,0.0211	-3001.33
0.9885,0.0115	-2996.71
0.9897,0.0103	-2987.63
0.9761,0.0239	-2994.22
0.9925,0.0075	-2982.45
0.9935,0.0065	-2997.34
0.9790,0.0210	-3005.16
0.9897,0.0103	-3001.33
0.9906,0.0094	-2992.17
0.9716,0.0284	-2995.24
0.9918,0.0082	-2982.59
0.9936,0.0064	-2992.33
0.9805,0.0195	-3009.02
0.9889,0.0111	-2996.72
0.9919,0.0081	-2982.56
0.9684,0.0316	-3016.54
0.9942,0.0058	-2987.28
0.9940,0.0060	-2982.17
0.9742,0.0258	-3009.16
0.9887,0.0113	-2996.72
0.9925,0.0075	-2987.33
0.9610,0.0390	-3045.99
0.9948,0.0052	-2976.79
0.9948,0.0052	-2982.05
0.9732,0.0268	-3012.82
0.9897,0.0103	-2983.07
0.9934,0.0066	-2982.27
0.9585,0.0415	-3020.58
0.9956,0.0044	-2976.53
0.9947,0.0053	-2976.83
0.9736,0.0264	-2994.76
0.9875,0.0125	-2996.71
0.9939,0.0061	-2987.28
0.9561,0.0439	-3023.91
0.9945,0.0055	-2976.89
0.9948,0.0052	-2982.05
0.9744,0.0256	-2998.23
0.9913,0.0087	-2987.43
0.9933,0.0067	-2977.31
0.9660,0.0340	-3003.30
0.9960,0.0040	-2976.41
0.9946,0.0054	-2982.08
0.9786,0.0214	-3020.47
0.9907,0.0093	-2987.50
0.9928,0.0072	-2992.24
0.9636,0.0364	-3020.16
0.9971,0.0029	-2981.87
0.9931,0.0069	-2992.26
0.9763,0.0237	-3009.05
0.9915,0.0085	-2977.88
0.9896,0.0104	-2987.64
0.9685,0.0315	-3026.81
0.9967,0.0033	-2981.87
0.9933,0.0067	-2982.29
0.9761,0.0239	-2994.22
0.9932,0.0068	-2992.28
0.9897,0.0103	-2983.07
0.9718,0.0282	-2991.64
0.9967,0.0033	-2981.87
0.9915,0.0085	-2987.41
0.9775,0.0225	-3016.56
0.9931,0.0069	-2987.30
0.9883,0.0117	-2996.71
0.9720,0.0280	-3009.32
0.9966,0.0034	-2976.20
0.9927,0.0073	-2992.23
0.9797,0.0203	-2997.38
0.9946,0.0054	-2976.87
0.9874,0.0126	-3009.79
0.9662,0.0338	-3013.32
0.9964,0.0036	-2981.88
0.9939,0.0061	-2982.19
0.9779,0.0221	-3005.22
0.9957,0.0043	-2981.94
0.9889,0.0111	-2983.26
0.9696,0.0304	-3009.55
0.9960,0.0040	-2981.91
0.9936,0.0064	-2977.18
0.9819,0.0181	-2997.09
0.9952,0.0048	-2998.00
0.9880,0.0120	-2987.89
0.9733,0.0267	-3002.04
0.9963,0.0037	-2981.89
0.9926,0.0074	-2982.42
0.9801,0.0199	-3005.11
0.9941,0.0059	-2977.03
0.9895,0.0105	-2996.74
0.9747,0.0253	-2998.19
0.9968,0.0032	-2987.62
0.9942,0.0058	-2982.13
0.9770,0.0230	-2990.30
0.9941,0.0059	-2982.15
0.9896,0.0104	-2987.64
0.9733,0.0267	-3002.03
0.9967,0.0033	-2981.87
0.9930,0.0070	-2982.35
0.9799,0.0201	-3001.23
0.9949,0.0051	-2992.58
0.9848,0.0152	-2984.32
0.9724,0.0276	-3002.18
0.9964,0.0036	-2981.88
0.9928,0.0072	-2992.24
0.9787,0.0213	-3009.00
0.9943,0.0057	-2982.12
0.9836,0.0164	-2992.83
0.9742,0.0258	-3005.52
0.9962,0.0038	-2981.90
0.9925,0.0075	-2982.44
0.9772,0.0228	-3016.54
0.9949,0.0051	-2997.86
0.9859,0.0141	-2992.52
0.9719,0.0281	-2998.70
0.9954,0.0046	-2987.35
0.9912,0.0088	-2982.71
0.9781,0.0219	-3001.41
0.9961,0.0039	-2981.91
0.9858,0.0142	-3013.73
0.9729,0.0271	-3005.67
0.9961,0.0039	-2981.90
0.9923,0.0077	-2997.06
0.9764,0.0236	-3012.77
0.9954,0.0046	-2976.60
0.9835,0.0165	-2996.93
0.9750,0.0250	-2998.12
0.9964,0.0036	-2976.25
0.9921,0.0079	-2982.52
0.9727,0.0273	-3009.27
0.9949,0.0051	-2987.30
0.9797,0.0203	-2993.51
0.9749,0.0251	-3009.12
0.9972,0.0028	-2975.99
0.9919,0.0081	-2992.18
0.9674,0.0326	-3006.42
0.9951,0.0049	-2987.32
0.9803,0.0197	-3016.83
0.9636,0.0364	-3023.43
0.9969,0.0031	-2976.11
0.9924,0.0076	-2977.60
0.9744,0.0256	-3020.06
0.9962,0.0038	-2981.90
0.9854,0.0146	-2996.79
0.9653,0.0347	-3023.39
0.9975,0.0025	-2975.89
0.9916,0.0084	-2987.40
0.9769,0.0231	-3001.54
0.9957,0.0043	-2976.50
0.9849,0.0151	-2984.28
0.9673,0.0327	-3016.60
0.9976,0.0024	-2981.89
0.9886,0.0114	-2987.78
0.9782,0.0218	-3001.40
0.9962,0.0038	-2993.05
0.9888,0.0112	-3005.68
0.9585,0.0415	-3014.29
0.9973,0.0027	-2975.97
0.9874,0.0126	-2987.99
0.9752,0.0248	-3001.76
0.9959,0.0041	-2981.92
0.9881,0.0119	-2987.86
0.9614,0.0386	-3017.10
0.9974,0.0026	-2975.93
0.9858,0.0142	-2988.29
0.9771,0.0229	-2994.01
0.9959,0.0041	-2987.42
0.9872,0.0128	-2988.02
0.9599,0.0401	-3001.39
0.9978,0.0022	-2975.78
0.9848,0.0152	-2984.31
0.9776,0.0224	-2986.37
0.9961,0.0039	-2987.45
0.9905,0.0095	-2987.52
0.9627,0.0373	-3020.22
0.9983,0.0017	-2982.01
0.9835,0.0165	-3001.02
0.9689,0.0311	-3002.76
0.9963,0.0037	-2981.89
0.9902,0.0098	-2992.17
0.9653,0.0347	-3016.74
0.9987,0.0013	-2982.14
0.9852,0.0148	-2996.80
0.9683,0.0317	-3026.80
0.9960,0.0040	-2981.92
0.9906,0.0094	-2987.51
0.9633,0.0367	-3026.71
0.9985,0.0015	-2975.55
0.9844,0.0156	-3009.28
0.9627,0.0373	-3010.47
0.9941,0.0059	-2987.28
0.9909,0.0091	-2987.47
0.9684,0.0316	-3023.38
0.9985,0.0015	-2975.55
0.9819,0.0181	-3005.08
0.9697,0.0303	-3009.55
0.9949,0.0051	-2997.84
0.9932,0.0068	-2987.29
0.9694,0.0306	-3016.49
0.9983,0.0017	-2982.00
0.9820,0.0180	-2985.10
0.9693,0.0307	-3013.04
0.9952,0.0048	-2982.00
0.9920,0.0080	-2987.36
0.9743,0.0257	-3020.06
0.9981,0.0019	-2975.70
0.9801,0.0199	-3005.11
0.9681,0.0319	-3009.72
0.9953,0.0047	-2981.98
0.9930,0.0070	-2987.30
0.9762,0.0238	-2994.20
0.9980,0.0020	-2975.71
0.9790,0.0210	-2997.47
0.9673,0.0327	-3016.60
0.9962,0.0038	-2976.34
0.9929,0.0071	-2982.36
0.9777,0.0223	-2993.88
0.9979,0.0021	-2975.77
0.9721,0.0279	-2995.11
0.9685,0.0315	-3016.53
0.9967,0.0033	-2976.15
0.9924,0.0076	-2987.34
0.9738,0.0262	-2994.73
0.9978,0.0022	-2975.79
0.9773,0.0227	-2997.73
0.9628,0.0372	-3023.47
0.9969,0.0031	-2981.87
0.9912,0.0088	-2982.73
0.9755,0.0245	-3016.46
0.9979,0.0021	-2975.78
0.9776,0.0224	-3001.46
0.9707,0.0293	-3005.95
0.9966,0.0034	-2976.19
0.9929,0.0071	-2997.18
0.9839,0.0161	-3001.01
0.9977,0.0023	-2975.82
0.9766,0.0234	-3016.51
0.9716,0.0284	-3019.96
0.9964,0.0036	-2981.88
0.9927,0.0073	-2987.32
0.9875,0.0125	-2992.34
0.9979,0.0021	-2981.93
0.9776,0.0224	-2993.92
0.9714,0.0286	-3009.38
0.9962,0.0038	-2987.47
0.9929,0.0071	-2992.25
0.9866,0.0134	-3001.03
0.9971,0.0029	-2981.87
0.9757,0.0243	-3016.46
0.9739,0.0261	-3009.18
0.9960,0.0040	-2987.43
0.9934,0.0066	-2987.29
0.9893,0.0107	-2987.68
0.9974,0.0026	-2981.88
0.9820,0.0180	-3001.09
0.9814,0.0186	-2989.21
0.9967,0.0033	-2981.87
0.9925,0.0075	-2982.44
0.9864,0.0136	-3005.30
0.9974,0.0026	-2987.82
0.9825,0.0175	-2997.03
0.9816,0.0184	-3013.04
0.9969,0.0031	-2987.65
0.9919,0.0081	-2987.38
0.9898,0.0102	-2983.05
0.9977,0.0023	-2981.90
0.9822,0.0178	-2997.06
0.9835,0.0165	-3001.02
0.9966,0.0034	-2998.95
0.9918,0.0082	-2977.81
0.9909,0.0091	-2992.16
0.9971,0.0029	-2976.02
0.9794,0.0206	-3009.00
0.9800,0.0200	-2993.44
0.9972,0.0028	-2981.87
0.9894,0.0106	-2983.14
0.9912,0.0088	-2992.16
0.9967,0.0033	-2981.87
0.9759,0.0241	-3012.77
0.9795,0.0205	-3016.73
0.9969,0.0031	-2987.64
0.9898,0.0102	-2987.61
0.9932,0.0068	-3002.26
0.9972,0.0028	-2987.73
0.9710,0.0290	-2995.37
0.9773,0.0227	-3009.02
0.9975,0.0025	-2975.91
0.9905,0.0095	-2992.17
0.9933,0.0067	-2982.29
0.9975,0.0025	-2975.88
0.9740,0.0260	-3005.55
0.9779,0.0221	-2997.65
0.9980,0.0020	-2975.74
0.9901,0.0099	-2992.18
0.9931,0.0069	-2982.33
0.9976,0.0024	-2981.89
0.9745,0.0255	-3005.49
0.9790,0.0210	-3005.15
0.9979,0.0021	-2981.93
0.9910,0.0090	-2992.16
0.9947,0.0053	-2987.29
0.9974,0.0026	-2975.92
0.9752,0.0248	-3012.77
0.9813,0.0187	-2997.17
0.9971,0.0029	-2987.70
0.9906,0.0094	-2987.51
0.9951,0.0049	-2976.68
0.9978,0.0022	-2975.80
0.9730,0.0270	-2987.73
0.9807,0.0193	-2989.38
0.9968,0.0032	-2981.87
0.9904,0.0096	-2987.53
0.9937,0.0063	-2987.28
0.9972,0.0028	-2975.98
0.9767,0.0233	-3001.57
0.9833,0.0167	-2996.95
0.9980,0.0020	-2975.74
0.9922,0.0078	-2987.35
0.9931,0.0069	-2992.27
0.9971,0.0029	-2976.01
0.9751,0.0249	-2994.44
0.9830,0.0170	-2996.98
0.9978,0.0022	-2975.80
0.9928,0.0072	-2977.46
0.9923,0.0077	-2987.34
0.9966,0.0034	-2976.19
0.9749,0.0251	-3001.80
0.9828,0.0172	-2984.87
0.9979,0.0021	-2981.92
0.9951,0.0049	-2982.00
0.9898,0.0102	-2987.61
0.9969,0.0031	-2981.87
0.9746,0.0254	-3005.49
0.9825,0.0175	-3005.09
0.9979,0.0021	-2981.93
0.9956,0.0044	-2976.52
0.9860,0.0140	-2988.24
0.9964,0.0036	-2981.88
0.9715,0.0285	-2998.78
0.9780,0.0220	-2993.83
0.9985,0.0015	-2975.58
0.9942,0.0058	-2987.28
0.9851,0.0149	-2992.61
0.9967,0.0033	-2976.17
0.9765,0.0235	-3012.77
0.9759,0.0241	-3016.47
0.9987,0.0013	-2975.50
0.9943,0.0057	-2987.28
0.9825,0.0175	-3013.14
0.9969,0.0031	-2976.09
0.9771,0.0229	-3012.78
0.9732,0.0268	-3009.23
0.9991,0.0009	-2975.38
0.9944,0.0056	-2982.10
0.9829,0.0171	-2984.83
0.9967,0.0033	-2976.15
0.9768,0.0232	-3020.25
0.9800,0.0200	-3009.01
0.9991,0.0009	-2982.40
0.9938,0.0062	-2977.14
0.9779,0.0221	-2997.64
0.9963,0.0037	-2981.89
0.9805,0.0195	-3005.10
0.9794,0.0206	-2993.56
0.9992,0.0008	-2975.32
0.9936,0.0064	-2992.32
0.9749,0.0251	-3001.80
0.9971,0.0029	-2981.87
0.9761,0.0239	-2997.93
0.9825,0.0175	-2993.00
0.9992,0.0008	-2975.35
0.9952,0.0048	-2976.66
0.9813,0.0187	-2985.27
0.9981,0.0019	-2975.69
0.9731,0.0269	-3020.00
0.9854,0.0146	-3001.00
0.9989,0.0011	-2975.42
0.9935,0.0065	-2992.32
0.9762,0.0238	-3009.06
0.9980,0.0020	-2975.72
0.9740,0.0260	-3009.17
0.9865,0.0135	-2983.86
0.9990,0.0010	-2989.27
0.9945,0.0055	-2982.09
0.9828,0.0172	-3009.14
0.9980,0.0020	-2975.75
0.9768,0.0232	-2997.82
0.9889,0.0111	-2978.77
0.9990,0.0010	-2975.40
0.9934,0.0066	-2982.28
0.9859,0.0141	-2988.27
0.9979,0.0021	-2988.11
0.9746,0.0254	-3001.85
0.9864,0.0136	-2992.46
0.9988,0.0012	-2988.95
0.9919,0.0081	-2992.18
0.9871,0.0129	-3005.40
0.9977,0.0023	-2981.91
0.9753,0.0247	-3001.75
0.9868,0.0132	-2979.46
0.9986,0.0014	-2975.55
0.9917,0.0083	-2996.96
0.9874,0.0126	-2987.99
0.9982,0.0018	-2975.65
0.9724,0.0276	-3016.42
0.9845,0.0155	-2996.85
0.9988,0.0012	-2982.18
0.9906,0.0094	-2992.17
0.9894,0.0106	-2983.13
0.9981,0.0019	-2981.96
0.9666,0.0334	-3026.74
0.9841,0.0159	-3001.00
0.9988,0.0012	-2982.20
0.9910,0.0090	-2992.16
0.9887,0.0113	-2992.25
0.9984,0.0016	-2982.04
0.9663,0.0337	-3026.73
0.9824,0.0176	-2997.04
0.9989,0.0011	-2975.43
0.9890,0.0110	-3005.71
0.9882,0.0118	-2987.85
0.9984,0.0016	-2982.04
0.9713,0.0287	-3012.91
0.9832,0.0168	-3001.03
0.9991,0.0009	-2975.37
0.9885,0.0115	-2987.80
0.9894,0.0106	-2992.20
0.9982,0.0018	-2981.99
0.9760,0.0240	-3005.36
0.9841,0.0159	-2996.88
0.9991,0.0009	-2982.40
0.9879,0.0121	-2992.31
0.9880,0.0120	-2983.46
0.9983,0.0017	-2975.62
0.9759,0.0241	-2994.27
0.9809,0.0191	-2993.28
0.9993,0.0007	-2975.30
0.9858,0.0142	-3005.24
0.9876,0.0124	-2987.96
0.9985,0.0015	-2975.56
0.9754,0.0246	-2994.37
0.9803,0.0197	-2997.29
0.9995,0.0005	-2975.24
0.9860,0.0140	-2996.75
0.9878,0.0122	-2983.52
0.9987,0.0013	-2975.50
0.9743,0.0257	-3020.06
0.9732,0.0268	-3016.41
0.9995,0.0005	-2975.25
0.9866,0.0134	-2979.53
0.9886,0.0114	-2987.79
0.9985,0.0015	-2975.58
0.9750,0.0250	-2998.11
0.9742,0.0258	-3009.16
0.9994,0.0006	-2975.26
0.9845,0.0155	-2984.38
0.9896,0.0104	-2987.64
0.9983,0.0017	-2975.63
0.9736,0.0264	-3012.81
0.9823,0.0177	-2997.05
0.9993,0.0007	-2975.29
0.9862,0.0138	-2992.47
0.9920,0.0080	-2987.36
0.9984,0.0016	-2982.03
0.9665,0.0335	-3006.56
0.9850,0.0150	-2992.62
0.9994,0.0006	-2975.26
0.9876,0.0124	-2992.33
0.9916,0.0084	-2982.63
0.9983,0.0017	-2982.00
0.9658,0.0342	-3020.04
0.9839,0.0161	-2996.89
0.9994,0.0006	-2975.26
0.9850,0.0150	-2984.26
0.9896,0.0104	-2978.54
0.9985,0.0015	-2975.57
0.9700,0.0300	-3009.52
0.9837,0.0163	-2996.91
0.9993,0.0007	-2982.55
0.9837,0.0163	-2992.82
0.9890,0.0110	-2983.22
0.9986,0.0014	-2982.11
0.9658,0.0342	-3026.72
0.9881,0.0119	-3005.54
0.9992,0.0008	-2975.34
0.9815,0.0185	-2993.17
0.9901,0.0099	-2987.57
0.9990,0.0010	-2975.41
0.9673,0.0327	-3016.60
0.9862,0.0138	-3005.29
0.9993,0.0007	-2975.31
0.9792,0.0208	-3005.15
0.9920,0.0080	-2977.72
0.9990,0.0010	-2975.40
0.9671,0.0329	-2999.71
0.9877,0.0123	-2996.71
0.9992,0.0008	-2975.33
0.9800,0.0200	-3005.12
0.9917,0.0083	-2987.39
0.9989,0.0011	-2975.42
0.9768,0.0232	-3001.56
0.9902,0.0098	-3006.01
0.9991,0.0009	-2975.35
0.9852,0.0148	-3001.00
0.9933,0.0067	-2982.29
0.9988,0.0012	-2982.21
0.9788,0.0212	-3009.00
0.9908,0.0092	-3006.21
0.9992,0.0008	-2982.45
0.9859,0.0141	-3009.51
0.9913,0.0087	-3006.38
0.9992,0.0008	-2975.33
0.9783,0.0217	-3016.62
0.9917,0.0083	-2982.61
0.9992,0.0008	-2982.44
0.9898,0.0102	-2987.61
0.9915,0.0085	-2982.65
0.9991,0.0009	-2982.37
0.9771,0.0229	-2997.77
0.9901,0.0099	-2987.57
0.9990,0.0010	-2975.40
0.9896,0.0104	-2987.64
0.9920,0.0080	-2982.54
0.9990,0.0010	-2975.40
0.9801,0.0199	-2997.31
0.9915,0.0085	-2996.93
0.9991,0.0009	-2975.36
0.9885,0.0115	-2987.81
0.9934,0.0066	-2977.27
0.9987,0.0013	-2982.15
0.9794,0.0206	-3005.14
0.9904,0.0096	-2992.17
0.9993,0.0007	-2975.30
0.9857,0.0143	-2984.07
0.9935,0.0065	-2982.26
0.9985,0.0015	-2982.08
0.9770,0.0230	-3016.53
0.9920,0.0080	-2992.19
0.9994,0.0006	-2975.28
0.9850,0.0150	-2996.82
0.9933,0.0067	-2977.29
0.9989,0.0011	-2975.43
0.9750,0.0250	-2998.12
0.9935,0.0065	-2982.25
0.9993,0.0007	-2997.23
0.9854,0.0146	-2992.57
0.9927,0.0073	-2992.23
0.9992,0.0008	-2975.35
0.9658,0.0342	-3020.04
0.9939,0.0061	-2982.19
0.9994,0.0006	-2982.70
0.9843,0.0157	-2996.86
0.9927,0.0073	-2987.32
0.9994,0.0006	-2975.26
0.9617,0.0383	-3023.52
0.9950,0.0050	-2987.31
0.9993,0.0007	-2975.29
0.9856,0.0144	-2979.88
0.9912,0.0088	-3006.34
0.9994,0.0006	-2975.28
0.9688,0.0312	-3013.09
0.9943,0.0057	-2982.12
0.9993,0.0007	-2982.55
0.9882,0.0118	-2983.41
0.9902,0.0098	-2987.56
0.9992,0.0008	-2975.35
0.9718,0.0282	-3002.27
0.9949,0.0051	-2982.03
0.9993,0.0007	-2975.29
0.9885,0.0115	-2987.81
0.9921,0.0079	-2987.36
0.9992,0.0008	-2975.33
0.9697,0.0303	-3002.61
0.9947,0.0053	-2976.81
0.9995,0.0005	-2975.24
0.9840,0.0160	-3001.01
0.9913,0.0087	-2982.69
0.9992,0.0008	-2975.32
0.9682,0.0318	-3006.30
0.9948,0.0052	-2987.30
0.9994,0.0006	-2975.28
0.9844,0.0156	-2996.85
0.9910,0.0090	-2978.07
0.9994,0.0006	-2975.28
0.9689,0.0311	-3016.51
0.9946,0.0054	-2976.85
0.9992,0.0008	-2975.33
0.9856,0.0144	-3001.00
0.9893,0.0107	-2996.73
0.9994,0.0006	-2975.28
0.9741,0.0259	-3001.91
0.9944,0.0056	-2982.10
0.9994,0.0006	-2975.27
0.9833,0.0167	-2988.80
0.9901,0.0099	-2992.18
0.9994,0.0006	-2975.28
0.9741,0.0259	-3005.54
0.9942,0.0058	-2982.13
0.9995,0.0005	-2975.24
0.9821,0.0179	-2997.07
0.9914,0.0086	-2996.91
0.9994,0.0006	-2975.26
0.9704,0.0296	-3009.47
0.9930,0.0070	-2982.34
0.9996,0.0004	-2975.19
0.9837,0.0163	-3005.11
0.9916,0.0084	-2992.17
0.9994,0.0006	-2975.28
0.9723,0.0277	-3016.42
0.9927,0.0073	-2992.23
0.9997,0.0003	-2975.16
0.9841,0.0159	-2996.88
0.9872,0.0128	-2988.03
0.9993,0.0007	-2975.32
0.9744,0.0256	-3016.43
0.9946,0.0054	-2976.87
0.9997,0.0003	-2975.16
0.9843,0.0157	-3001.00
0.9889,0.0111	-3005.70
0.9994,0.0006	-2975.26
0.9785,0.0215	-3001.37
0.9952,0.0048	-3008.65
0.9997,0.0003	-2975.15
0.9831,0.0169	-3005.09
0.9875,0.0125	-2992.34
0.9995,0.0005	-2975.24
0.9789,0.0211	-3009.00
0.9942,0.0058	-2976.98
0.9997,0.0003	-2975.17
0.9854,0.0146	-3009.42
0.9849,0.0151	-2980.10
0.9996,0.0004	-2983.01
0.9828,0.0172	-3001.04
0.9950,0.0050	-2976.73
0.9998,0.0002	-2975.15
0.9815,0.0185	-2997.14
0.9869,0.0131	-2996.72
0.9996,0.0004	-2975.19
0.9826,0.0174	-2997.02
0.9955,0.0045	-2981.96
0.9998,0.0002	-2975.13
0.9803,0.0197	-2985.56
0.9868,0.0132	-2988.10
0.9996,0.0004	-2975.19
0.9802,0.0198	-3009.01
0.9958,0.0042	-2976.45
0.9998,0.0002	-2975.15
0.9802,0.0198	-3005.11
0.9887,0.0113	-2992.24
0.9996,0.0004	-2975.19
0.9805,0.0195	-3016.86
0.9948,0.0052	-3003.07
0.9998,0.0002	-2975.14
0.9745,0.0255	-3016.43
0.9898,0.0102	-2992.18
0.9996,0.0004	-2975.21
0.9796,0.0204	-2993.52
0.9950,0.0050	-2976.73
0.9998,0.0002	-2975.13
0.9762,0.0238	-3001.63
0.9910,0.0090	-2978.06
0.9996,0.0004	-2975.20
0.9791,0.0209	-3001.30
0.9958,0.0042	-2976.46
0.9997,0.0003	-2975.16
0.9756,0.0244	-3009.08
0.9923,0.0077	-2982.49
0.9996,0.0004	-2975.21
0.9743,0.0257	-3001.89
0.9962,0.0038	-2981.90
0.9998,0.0002	-2975.14
0.9756,0.0244	-3005.39
0.9940,0.0060	-2987.28
0.9996,0.0004	-2975.20
0.9666,0.0334	-3013.28
0.9963,0.0037	-2987.49
0.9998,0.0002	-2992.16
0.9766,0.0234	-3005.31
0.9917,0.0083	-2982.62
0.9996,0.0004	-2982.97
0.9645,0.0355	-3010.20
0.9961,0.0039	-2981.90
0.9998,0.0002	-2975.14
0.9812,0.0188	-3016.95
0.9913,0.0087	-2992.17
0.9995,0.0005	-2975.22
0.9645,0.0355	-3010.20
0.9956,0.0044	-2987.38
0.9997,0.0003	-2975.16
0.9857,0.0143	-2988.31
0.9910,0.0090	-2978.05
0.9996,0.0004	-2975.19
0.9732,0.0268	-2987.67
0.9966,0.0034	-2976.20
0.9998,0.0002	-2975.15
0.9863,0.0137	-2992.47
0.9905,0.0095	-2992.17
0.9996,0.0004	-2975.21
0.9736,0.0264	-2994.77
0.9966,0.0034	-2987.56
0.9997,0.0003	-2975.16
0.9872,0.0128	-2988.02
0.9896,0.0104	-3001.30
0.9996,0.0004	-2975.19
0.9697,0.0303	-3033.81
0.9969,0.0031	-2981.87
0.9998,0.0002	-2975.14
0.9868,0.0132	-2983.77
0.9907,0.0093	-2996.83
0.9996,0.0004	-2975.19
0.9699,0.0301	-3002.59
0.9963,0.0037	-2976.29
0.9997,0.0003	-2983.37
0.9911,0.0089	-2978.02
0.9908,0.0092	-2982.80
0.9997,0.0003	-2975.17
0.9687,0.0313	-2999.36
0.9969,0.0031	-2981.87
0.9997,0.0003	-2983.37
0.9914,0.0086	-2982.68
0.9905,0.0095	-2978.21
0.9997,0.0003	-2983.36
0.9687,0.0313	-3019.96
0.9965,0.0035	-2976.22
0.9998,0.0002	-2975.15
0.9916,0.0084	-2987.40
0.9896,0.0104	-2983.09
0.9998,0.0002	-2975.15
0.9703,0.0297	-3005.99
0.9976,0.0024	-2981.89
0.9998,0.0002	-2975.14
0.9891,0.0109	-2992.22
0.9896,0.0104	-2996.75
0.9997,0.0003	-2975.17
0.9690,0.0310	-2999.30
0.9980,0.0020	-2981.94
0.9997,0.0003	-2975.16
0.9889,0.0111	-3005.69
0.9877,0.0123	-2979.17
0.9997,0.0003	-2975.17
0.9715,0.0285	-3016.43
0.9984,0.0016	-2975.59
0.9997,0.0003	-2975.16
0.9882,0.0118	-2987.86
0.9894,0.0106	-3005.81
0.9998,0.0002	-2975.15
0.9657,0.0343	-3010.04
0.9985,0.0015	-2982.06
0.9997,0.0003	-2975.17
0.9910,0.0090	-2992.16
0.9900,0.0100	-2987.59
0.9998,0.0002	-2975.15
0.9683,0.0317	-3013.12
0.9983,0.0017	-2982.02
0.9996,0.0004	-2975.19
0.9924,0.0076	-2977.60
0.9912,0.0088	-2982.71
0.9997,0.0003	-2975.16
0.9605,0.0395	-3029.96
0.9984,0.0016	-2982.03
0.9997,0.0003	-2975.18
0.9906,0.0094	-2992.17
0.9915,0.0085	-2992.17
0.9997,0.0003	-2975.16
0.9566,0.0434	-3036.24
0.9984,0.0016	-2975.58
0.9996,0.0004	-2975.21
0.9908,0.0092	-2987.49
0.9887,0.0113	-2992.24
0.9998,0.0002	-2975.15
0.9508,0.0492	-3045.19
0.9985,0.0015	-2975.56
0.9996,0.0004	-2975.21
0.9886,0.0114	-2996.71
0.9893,0.0107	-2996.73
0.9996,0.0004	-2975.20
0.9562,0.0438	-3036.23
0.9986,0.0014	-2975.53
0.9994,0.0006	-2975.28
0.9884,0.0116	-2992.26
0.9867,0.0133	-2996.73
0.9997,0.0003	-2975.18
0.9473,0.0527	-3030.68
0.9985,0.0015	-2975.57
0.9993,0.0007	-2982.55
0.9908,0.0092	-2992.16
0.9859,0.0141	-2992.52
0.9997,0.0003	-2975.18
0.9522,0.0478	-3048.23
0.9987,0.0013	-2982.17
0.9992,0.0008	-2975.34
0.9917,0.0083	-2992.17
0.9806,0.0194	-2997.26
0.9996,0.0004	-2975.21
0.9412,0.0588	-3039.68
0.9987,0.0013	-2975.50
0.9991,0.0009	-2975.37
0.9920,0.0080	-2982.55
0.9796,0.0204	-3009.00
0.9996,0.0004	-2975.19
0.9459,0.0541	-3016.51
0.9990,0.0010	-2975.41
0.9991,0.0009	-2975.38
0.9908,0.0092	-2992.16
0.9715,0.0285	-3009.37
0.9997,0.0003	-2975.16
0.9485,0.0515	-3027.67
0.9992,0.0008	-2975.35
0.9990,0.0010	-2982.29
0.9899,0.0101	-2983.01
0.9675,0.0325	-3023.37
0.9997,0.0003	-2975.16
0.9532,0.0468	-3015.16
0.9992,0.0008	-2982.48
0.9988,0.0012	-2975.45
0.9916,0.0084	-2992.17
0.9682,0.0318	-3006.30
0.9997,0.0003	-2975.16
0.9608,0.0392	-3017.17
0.9993,0.0007	-2975.31
0.9987,0.0013	-2975.49
0.9914,0.0086	-2982.67
0.9719,0.0281	-3027.06
0.9997,0.0003	-2975.17
0.9575,0.0425	-3014.45
0.9991,0.0009	-2982.39
0.9988,0.0012	-2975.47
0.9899,0.0101	-2992.18
0.9711,0.0289	-3009.41
0.9997,0.0003	-2975.18
0.9606,0.0394	-3023.58
0.9992,0.0008	-2975.32
0.9986,0.0014	-2975.53
0.9884,0.0116	-3005.60
0.9694,0.0306	-3006.12
0.9997,0.0003	-2975.18
0.9632,0.0368	-3003.87
0.9990,0.0010	-2975.38
0.9986,0.0014	-2975.53
0.9890,0.0110	-2978.73
0.9668,0.0332	-3013.26
0.9996,0.0004	-2975.20
0.9598,0.0402	-3023.63
0.9987,0.0013	-2975.50
0.9987,0.0013	-2982.16
0.9884,0.0116	-2987.81
0.9726,0.0274	-3009.28
0.9995,0.0005	-2975.23
0.9615,0.0385	-3013.87
0.9987,0.0013	-2982.15
0.9984,0.0016	-2975.60
0.9905,0.0095	-2982.88
0.9602,0.0398	-3023.60
0.9995,0.0005	-2975.23
0.9645,0.0355	-3003.60
0.9990,0.0010	-2975.41
0.9984,0.0016	-2982.02
0.9888,0.0112	-3010.16
0.9621,0.0379	-3007.32
0.9994,0.0006	-2975.26
0.9636,0.0364	-3029.99
0.9991,0.0009	-2975.37
0.9981,0.0019	-2981.95
0.9873,0.0127	-2988.01
0.9617,0.0383	-3029.96
0.9993,0.0007	-2975.29
0.9622,0.0378	-3017.01
0.9992,0.0008	-2975.32
0.9983,0.0017	-2982.02
0.9872,0.0128	-3001.06
0.9659,0.0341	-2996.62
0.9993,0.0007	-2975.29
0.9596,0.0404	-3033.14
0.9992,0.0008	-2982.47
0.9982,0.0018	-2975.65
0.9861,0.0139	-2996.75
0.9681,0.0319	-3002.91
0.9993,0.0007	-2975.30
0.9526,0.0474	-3009.25
0.9993,0.0007	-2975.31
0.9981,0.0019	-2981.96
0.9905,0.0095	-2978.24
0.9721,0.0279	-3002.21
0.9990,0.0010	-2975.39
0.9536,0.0464	-3036.24
0.9993,0.0007	-2975.29
0.9979,0.0021	-2975.75
0.9892,0.0108	-2996.73
0.9692,0.0308	-3023.40
0.9990,0.0010	-2975.42
0.9586,0.0414	-3029.99
0.9993,0.0007	-2975.29
0.9982,0.0018	-2975.67
0.9906,0.0094	-2987.50
0.9671,0.0329	-3023.37
0.9990,0.0010	-2975.39
0.9651,0.0349	-3003.47
0.9995,0.0005	-2975.25
0.9985,0.0015	-2982.07
0.9878,0.0122	-2979.13
0.9704,0.0296	-3016.46
0.9991,0.0009	-2975.37
0.9687,0.0313	-3002.79
0.9994,0.0006	-2975.26
0.9981,0.0019	-2988.21
0.9817,0.0183	-3001.10
0.9743,0.0257	-3005.52
0.9991,0.0009	-2975.36
0.9672,0.0328	-3013.22
0.9993,0.0007	-2975.31
0.9984,0.0016	-2975.60
0.9815,0.0185	-3013.03
0.9619,0.0381	-3023.51
0.9990,0.0010	-2975.40
0.9671,0.0329	-3030.13
0.9992,0.0008	-2975.34
0.9982,0.0018	-2975.65
0.9784,0.0216	-2997.56
0.9638,0.0362	-3016.86
0.9991,0.0009	-2975.36
0.9713,0.0287	-2998.82
0.9994,0.0006	-2982.72
0.9978,0.0022	-2988.05
0.9800,0.0200	-3001.23
0.9644,0.0356	-3023.41
0.9990,0.0010	-2975.39
0.9708,0.0292	-3005.93
0.9994,0.0006	-2975.26
0.9985,0.0015	-2982.06
0.9820,0.0180	-3001.08
0.9635,0.0365	-3016.89
0.9989,0.0011	-2975.44
0.9746,0.0254	-3016.43
0.9994,0.0006	-2975.28
0.9986,0.0014	-2982.10
0.9844,0.0156	-2996.86
0.9686,0.0314	-3006.24
0.9990,0.0010	-2975.39
0.9792,0.0208	-3001.29
0.9994,0.0006	-2975.27
0.9986,0.0014	-2982.12
0.9836,0.0164	-2988.74
0.9676,0.0324	-3013.19
0.9989,0.0011	-2975.42
0.9810,0.0190	-2993.26
0.9994,0.0006	-2975.26
0.9986,0.0014	-2982.11
0.9824,0.0176	-2997.04
0.9717,0.0283	-3030.57
0.9989,0.0011	-2975.44
0.9829,0.0171	-2996.99
0.9995,0.0005	-2975.25
0.9991,0.0009	-2982.37
0.9855,0.0145	-3001.00
0.9798,0.0202	-2997.36
0.9989,0.0011	-2975.44
0.9828,0.0172	-3001.04
0.9995,0.0005	-2975.25
0.9988,0.0012	-2975.46
0.9846,0.0154	-2996.84
0.9827,0.0173	-2988.93
0.9991,0.0009	-2975.37
0.9814,0.0186	-3009.05
0.9994,0.0006	-2975.25
0.9987,0.0013	-2982.16
0.9782,0.0218	-3005.20
0.9814,0.0186	-2989.23
0.9990,0.0010	-2982.28
0.9835,0.0165	-3009.19
0.9996,0.0004	-2975.21
0.9987,0.0013	-2975.49
0.9786,0.0214	-3012.82
0.9826,0.0174	-3009.12
0.9992,0.0008	-2975.34
0.9832,0.0168	-3001.03
0.9996,0.0004	-2975.19
0.9984,0.0016	-2982.02
0.9804,0.0196	-2997.29
0.9838,0.0162	-3001.01
0.9991,0.0009	-2982.37
0.9849,0.0151	-3005.17
0.9997,0.0003	-2975.18
0.9983,0.0017	-2975.63
0.9762,0.0238	-3009.06
0.9842,0.0158	-2988.62
0.9991,0.0009	-2982.35
0.9864,0.0136	-3001.02
0.9996,0.0004	-2975.19
0.9978,0.0022	-2981.92
0.9702,0.0298	-3012.98
0.9826,0.0174	-3001.05
0.9990,0.0010	-2975.39
0.9862,0.0138	-2988.20
0.9997,0.0003	-2983.26
0.9979,0.0021	-2975.77
0.9715,0.0285	-3009.37
0.9834,0.0166	-3025.51
0.9992,0.0008	-2975.35
0.9845,0.0155	-2992.69
0.9997,0.0003	-2975.17
0.9979,0.0021	-2975.75
0.9739,0.0261	-3009.18
0.9836,0.0164	-3001.02
0.9989,0.0011	-2982.25
0.9857,0.0143	-3009.47
0.9997,0.0003	-2975.17
0.9978,0.0022	-2975.79
0.9654,0.0346	-3003.42
0.9856,0.0144	-2996.78
0.9985,0.0015	-2975.55
0.9838,0.0162	-2988.69
0.9996,0.0004	-2975.19
0.9974,0.0026	-2981.88
0.9695,0.0305	-3006.11
0.9865,0.0135	-3005.32
0.9984,0.0016	-2975.59
0.9821,0.0179	-2997.07
0.9996,0.0004	-2975.21
0.9976,0.0024	-2987.91
0.9747,0.0253	-3001.83
0.9902,0.0098	-2996.79
0.9985,0.0015	-2988.57
0.9832,0.0168	-2996.95
0.9997,0.0003	-2975.18
0.9980,0.0020	-2981.95
0.9761,0.0239	-2997.94
0.9911,0.0089	-2982.74
0.9983,0.0017	-2982.00
0.9852,0.0148	-3001.00
0.9996,0.0004	-2975.19
0.9983,0.0017	-2975.62
0.9760,0.0240	-3016.48
0.9911,0.0089	-2987.45
