#isoforms=['ENSG00000101294.SE.1.A.up_ENSG00000101294.SE.1.A.SE1_ENSG00000101294.SE.1.A.dn','ENSG00000101294.SE.1.B.up_ENSG00000101294.SE.1.B.dn']	exon_lens=('ENSG00000101294.SE.1.A.up',99),('ENSG00000101294.SE.1.A.SE1',376),('ENSG00000101294.SE.1.A.dn',89),('ENSG00000101294.SE.1.B.up',99),('ENSG00000101294.SE.1.B.dn',89)	iters=5000	burn_in=500	lag=10	percent_accept=96.17	proposal_type=drift	counts=(0,0):734,(1,0):290,(1,1):72	assigned_counts=0:357,1:5	chrom=chr20	strand=+	mRNA_starts=31527484,31527484	mRNA_ends=31545035,31545035
sampled_psi	log_score
0.9014,0.0986	-2283.44
0.9581,0.0419	-2273.30
0.9604,0.0396	-2263.67
0.9158,0.0842	-2278.06
0.8851,0.1149	-2286.38
0.9508,0.0492	-2267.64
0.9280,0.0720	-2274.82
0.9578,0.0422	-2279.55
0.9685,0.0315	-2273.11
0.9189,0.0811	-2277.87
0.8901,0.1099	-2300.77
0.9501,0.0499	-2267.70
0.9203,0.0797	-2272.90
0.9567,0.0433	-2267.16
0.9642,0.0358	-2263.27
0.9189,0.0811	-2282.73
0.8892,0.1108	-2284.09
0.9422,0.0578	-2273.97
0.9027,0.0973	-2287.83
0.9546,0.0454	-2270.37
0.9660,0.0340	-2273.13
0.9255,0.0745	-2282.54
0.8976,0.1024	-2281.46
0.9525,0.0475	-2282.49
0.9137,0.0863	-2287.63
0.9565,0.0435	-2279.53
0.9675,0.0325	-2273.12
0.9281,0.0719	-2272.25
0.8846,0.1154	-2286.40
0.9478,0.0522	-2273.69
0.9307,0.0693	-2277.24
0.9586,0.0414	-2267.00
0.9741,0.0259	-2269.51
0.9322,0.0678	-2279.79
0.9052,0.0948	-2294.54
0.9372,0.0628	-2274.25
0.9282,0.0718	-2272.24
0.9475,0.0525	-2276.60
0.9736,0.0264	-2269.53
0.9271,0.0729	-2279.96
0.9140,0.0860	-2275.81
0.9407,0.0593	-2282.34
0.9435,0.0565	-2279.54
0.9456,0.0544	-2276.65
0.9744,0.0256	-2273.15
0.9194,0.0806	-2277.85
0.9092,0.0908	-2271.57
0.9439,0.0561	-2276.71
0.9389,0.0611	-2274.15
0.9386,0.0614	-2279.62
0.9777,0.0223	-2265.68
0.9382,0.0618	-2279.63
0.9173,0.0827	-2285.19
0.9507,0.0493	-2267.65
0.9467,0.0533	-2282.38
0.9428,0.0572	-2271.14
0.9817,0.0183	-2269.46
0.9538,0.0462	-2279.50
0.9250,0.0750	-2275.02
0.9425,0.0575	-2273.96
0.9391,0.0609	-2265.93
0.9350,0.0650	-2290.37
0.9863,0.0137	-2265.31
0.9535,0.0465	-2270.43
0.9220,0.0780	-2287.57
0.9463,0.0537	-2268.03
0.9433,0.0567	-2271.10
0.9333,0.0667	-2295.59
0.9881,0.0119	-2269.69
0.9489,0.0511	-2282.41
0.9257,0.0743	-2285.06
0.9529,0.0471	-2270.47
0.9474,0.0526	-2270.82
0.9208,0.0792	-2287.58
0.9901,0.0099	-2265.26
0.9437,0.0563	-2276.71
0.9323,0.0677	-2285.03
0.9346,0.0654	-2274.40
0.9443,0.0557	-2276.69
0.9146,0.0854	-2294.73
0.9897,0.0103	-2260.70
0.9399,0.0601	-2271.35
0.9374,0.0626	-2287.77
0.9573,0.0427	-2273.32
0.9395,0.0605	-2274.12
0.9237,0.0763	-2270.12
0.9869,0.0131	-2269.62
0.9464,0.0536	-2279.50
0.9384,0.0616	-2271.46
0.9530,0.0470	-2279.49
0.9402,0.0598	-2279.59
0.9233,0.0767	-2282.60
0.9902,0.0098	-2260.64
0.9600,0.0400	-2270.07
0.9471,0.0529	-2279.50
0.9452,0.0548	-2282.36
0.9442,0.0558	-2279.53
0.9158,0.0842	-2282.83
0.9913,0.0087	-2260.54
0.9581,0.0419	-2279.56
0.9461,0.0539	-2273.78
0.9317,0.0683	-2279.81
0.9502,0.0498	-2276.54
0.9058,0.0942	-2283.23
0.9907,0.0093	-2260.59
0.9597,0.0403	-2276.42
0.9496,0.0504	-2273.62
0.9278,0.0722	-2277.38
0.9536,0.0464	-2285.54
0.9197,0.0803	-2282.70
0.9921,0.0079	-2260.46
0.9636,0.0364	-2279.72
0.9527,0.0473	-2276.49
0.9339,0.0661	-2279.74
0.9502,0.0498	-2279.49
0.9374,0.0626	-2279.65
0.9937,0.0063	-2265.36
0.9629,0.0371	-2266.66
0.9443,0.0557	-2273.86
0.9303,0.0697	-2277.26
0.9483,0.0517	-2270.77
0.9312,0.0688	-2282.43
0.9929,0.0071	-2260.38
0.9639,0.0361	-2269.87
0.9401,0.0599	-2276.84
0.9361,0.0639	-2271.63
0.9421,0.0579	-2276.77
0.9405,0.0595	-2279.58
0.9935,0.0065	-2260.32
0.9693,0.0307	-2266.20
0.9444,0.0556	-2273.86
0.9268,0.0732	-2279.97
0.9210,0.0790	-2275.29
0.9450,0.0550	-2270.99
0.9942,0.0058	-2260.26
0.9592,0.0408	-2270.11
0.9536,0.0464	-2270.43
0.9381,0.0619	-2274.20
0.9243,0.0757	-2285.07
0.9414,0.0586	-2271.24
0.9951,0.0049	-2260.17
0.9481,0.0519	-2270.78
0.9593,0.0407	-2266.95
0.9424,0.0576	-2279.55
0.9197,0.0803	-2270.51
0.9377,0.0623	-2271.51
0.9927,0.0073	-2260.40
0.9527,0.0473	-2267.48
0.9647,0.0353	-2266.53
0.9458,0.0542	-2270.93
0.9090,0.0910	-2290.00
0.9299,0.0701	-2279.86
0.9907,0.0093	-2260.59
0.9549,0.0451	-2276.46
0.9555,0.0445	-2279.52
0.9441,0.0559	-2279.53
0.8976,0.1024	-2301.00
0.9344,0.0656	-2279.73
0.9903,0.0097	-2269.89
0.9590,0.0410	-2266.97
0.9572,0.0428	-2288.86
0.9532,0.0468	-2273.47
0.9168,0.0832	-2290.00
0.9309,0.0691	-2282.43
0.9915,0.0085	-2265.28
0.9573,0.0427	-2276.43
0.9576,0.0424	-2267.08
0.9507,0.0493	-2282.45
0.9152,0.0848	-2282.85
0.9134,0.0866	-2282.92
0.9933,0.0067	-2265.34
0.9608,0.0392	-2270.03
0.9520,0.0480	-2273.51
0.9538,0.0462	-2270.42
0.9115,0.0885	-2280.66
0.8858,0.1142	-2282.24
0.9935,0.0065	-2265.35
0.9572,0.0428	-2270.22
0.9571,0.0429	-2279.54
0.9530,0.0470	-2279.49
0.9182,0.0818	-2273.07
0.8611,0.1389	-2300.57
0.9941,0.0059	-2260.26
0.9528,0.0472	-2264.47
0.9645,0.0355	-2269.85
0.9433,0.0567	-2271.10
0.9326,0.0674	-2285.03
0.8709,0.1291	-2283.36
0.9926,0.0074	-2265.31
0.9522,0.0478	-2273.51
0.9602,0.0398	-2270.06
0.9427,0.0573	-2271.15
0.9358,0.0642	-2277.01
0.8653,0.1347	-2302.41
0.9929,0.0071	-2270.26
0.9620,0.0380	-2263.51
0.9596,0.0404	-2266.92
0.9392,0.0608	-2276.87
0.9351,0.0649	-2282.38
0.8581,0.1419	-2282.61
0.9936,0.0064	-2260.31
0.9657,0.0343	-2273.13
0.9581,0.0419	-2267.04
0.9546,0.0454	-2279.51
0.9439,0.0561	-2282.35
0.8646,0.1354	-2289.43
0.9951,0.0049	-2260.16
0.9562,0.0438	-2270.28
0.9543,0.0457	-2276.47
0.9557,0.0443	-2264.16
0.9556,0.0444	-2279.52
0.8866,0.1134	-2290.41
0.9946,0.0054	-2260.21
0.9598,0.0402	-2270.08
0.9550,0.0450	-2279.51
0.9507,0.0493	-2282.44
0.9642,0.0358	-2283.04
0.8715,0.1285	-2298.62
0.9958,0.0042	-2260.10
0.9540,0.0460	-2267.37
0.9627,0.0373	-2266.68
0.9534,0.0466	-2264.40
0.9709,0.0291	-2262.58
0.8806,0.1194	-2288.61
0.9948,0.0052	-2260.19
0.9496,0.0504	-2282.42
0.9540,0.0460	-2267.38
0.9583,0.0417	-2270.16
0.9719,0.0281	-2269.57
0.8935,0.1065	-2283.85
0.9949,0.0051	-2260.18
0.9431,0.0569	-2271.12
0.9488,0.0512	-2273.65
0.9498,0.0502	-2270.67
0.9704,0.0296	-2262.63
0.8995,0.1005	-2294.49
0.9956,0.0044	-2260.11
0.9347,0.0653	-2269.07
0.9421,0.0579	-2282.35
0.9445,0.0555	-2282.36
0.9680,0.0320	-2266.29
0.8917,0.1083	-2288.17
0.9959,0.0041	-2260.09
0.9316,0.0684	-2282.42
0.9422,0.0578	-2282.35
0.9350,0.0650	-2282.38
0.9750,0.0250	-2269.50
0.8798,0.1202	-2290.64
0.9954,0.0046	-2260.13
0.9149,0.0851	-2294.74
0.9439,0.0561	-2276.71
0.9298,0.0702	-2272.11
0.9776,0.0224	-2269.46
0.9011,0.0989	-2290.08
0.9957,0.0043	-2265.55
0.9093,0.0907	-2290.00
0.9430,0.0570	-2268.31
0.9428,0.0572	-2273.94
0.9838,0.0162	-2261.29
0.9236,0.0764	-2290.07
0.9954,0.0046	-2260.13
0.8961,0.1039	-2279.40
0.9381,0.0619	-2279.63
0.9550,0.0450	-2276.46
0.9848,0.0152	-2265.35
0.9232,0.0768	-2287.57
0.9953,0.0047	-2265.50
0.9011,0.0989	-2287.87
0.9352,0.0648	-2282.37
0.9575,0.0425	-2270.21
0.9849,0.0151	-2265.35
0.9299,0.0701	-2277.28
0.9949,0.0051	-2260.18
0.9066,0.0934	-2285.47
0.9357,0.0643	-2279.69
0.9619,0.0381	-2276.43
0.9817,0.0183	-2261.50
0.9330,0.0670	-2277.13
0.9955,0.0045	-2260.12
0.9166,0.0834	-2282.80
0.9272,0.0728	-2282.50
0.9587,0.0413	-2273.28
0.9782,0.0218	-2261.85
0.9169,0.0831	-2292.40
0.9951,0.0049	-2260.17
0.9230,0.0770	-2280.12
0.9328,0.0672	-2277.14
0.9528,0.0472	-2264.47
0.9756,0.0244	-2276.86
0.9262,0.0738	-2277.46
0.9950,0.0050	-2270.76
0.9015,0.0985	-2272.37
0.9313,0.0687	-2272.00
0.9511,0.0489	-2282.45
0.9776,0.0224	-2273.23
0.9206,0.0794	-2280.22
0.9950,0.0050	-2260.17
0.9078,0.0922	-2296.87
0.9215,0.0785	-2280.19
0.9510,0.0490	-2273.55
0.9737,0.0263	-2269.52
0.9070,0.0930	-2294.57
0.9950,0.0050	-2265.47
0.9234,0.0766	-2285.08
0.9050,0.0950	-2283.27
0.9491,0.0509	-2270.71
0.9744,0.0256	-2265.87
0.9137,0.0863	-2280.55
0.9952,0.0048	-2260.15
0.9169,0.0831	-2280.39
0.8736,0.1264	-2298.61
0.9459,0.0541	-2273.78
0.9721,0.0279	-2266.01
0.9342,0.0658	-2277.08
0.9950,0.0050	-2265.47
0.9235,0.0765	-2267.64
0.8612,0.1388	-2295.10
0.9488,0.0512	-2288.25
0.9779,0.0221	-2284.61
0.9228,0.0772	-2280.13
0.9959,0.0041	-2260.09
0.9189,0.0811	-2273.02
0.8402,0.1598	-2302.61
0.9417,0.0583	-2276.78
0.9782,0.0218	-2273.26
0.9345,0.0655	-2274.41
0.9969,0.0031	-2259.99
0.9324,0.0676	-2285.03
0.8630,0.1370	-2295.04
0.9441,0.0559	-2279.53
0.9799,0.0201	-2261.68
0.9339,0.0661	-2277.09
0.9968,0.0032	-2260.00
0.9265,0.0735	-2277.45
0.8214,0.1786	-2292.43
0.9425,0.0575	-2282.35
0.9829,0.0171	-2269.47
0.9303,0.0697	-2287.62
0.9969,0.0031	-2259.99
0.9479,0.0521	-2276.59
0.8274,0.1726	-2309.19
0.9352,0.0648	-2285.04
0.9835,0.0165	-2265.40
0.9370,0.0630	-2282.36
0.9968,0.0032	-2271.46
0.9382,0.0618	-2274.19
0.7927,0.2073	-2300.35
0.9412,0.0588	-2271.25
0.9827,0.0173	-2261.39
0.9483,0.0517	-2267.85
0.9960,0.0040	-2260.07
0.9365,0.0635	-2282.36
0.8035,0.1965	-2303.83
0.9515,0.0485	-2276.51
0.9844,0.0156	-2273.65
0.9414,0.0586	-2285.12
0.9955,0.0045	-2260.12
0.9358,0.0642	-2279.69
0.8010,0.1990	-2303.95
0.9534,0.0466	-2270.44
0.9855,0.0145	-2265.33
0.9542,0.0458	-2285.57
0.9959,0.0041	-2260.09
0.9468,0.0532	-2270.86
0.8044,0.1956	-2300.96
0.9448,0.0552	-2276.68
0.9839,0.0161	-2265.39
0.9580,0.0420	-2270.18
0.9961,0.0039	-2265.61
0.9500,0.0500	-2270.66
0.8369,0.1631	-2296.14
0.9543,0.0457	-2276.46
0.9847,0.0153	-2261.20
0.9526,0.0474	-2273.49
0.9955,0.0045	-2260.13
0.9459,0.0541	-2270.92
0.8360,0.1640	-2297.81
0.9489,0.0511	-2273.64
0.9846,0.0154	-2273.67
0.9462,0.0538	-2276.64
0.9960,0.0040	-2265.59
0.9253,0.0747	-2290.10
0.8259,0.1741	-2299.85
0.9439,0.0561	-2285.18
0.9872,0.0128	-2269.63
0.9503,0.0497	-2267.68
0.9962,0.0038	-2271.19
0.9242,0.0758	-2280.08
0.8527,0.1473	-2293.66
0.9342,0.0658	-2287.69
0.9857,0.0143	-2265.32
0.9584,0.0416	-2273.29
0.9968,0.0032	-2271.50
0.9295,0.0705	-2274.72
0.8601,0.1399	-2300.58
0.9355,0.0645	-2271.67
0.9876,0.0124	-2269.66
0.9566,0.0434	-2267.16
0.9965,0.0035	-2260.03
0.9396,0.0604	-2279.60
0.8619,0.1381	-2282.26
0.9330,0.0670	-2271.87
0.9879,0.0121	-2269.68
0.9502,0.0498	-2270.64
0.9966,0.0034	-2260.01
0.9417,0.0583	-2268.44
0.8723,0.1277	-2285.17
0.9364,0.0636	-2282.36
0.9888,0.0112	-2260.79
0.9498,0.0502	-2282.43
0.9969,0.0031	-2259.99
0.9296,0.0704	-2279.87
0.8098,0.1902	-2299.21
0.9319,0.0681	-2277.18
0.9868,0.0132	-2269.61
0.9464,0.0536	-2282.37
0.9965,0.0035	-2265.68
0.9384,0.0616	-2295.97
0.8046,0.1954	-2308.02
0.9086,0.0914	-2276.22
0.9850,0.0150	-2265.35
0.9562,0.0438	-2276.44
0.9969,0.0031	-2265.76
0.9361,0.0639	-2279.68
0.7886,0.2114	-2300.64
0.8908,0.1092	-2294.50
0.9823,0.0177	-2265.45
0.9648,0.0352	-2279.77
0.9973,0.0027	-2259.95
0.9402,0.0598	-2282.34
0.8034,0.1966	-2301.02
0.8970,0.1030	-2292.32
0.9876,0.0124	-2265.28
0.9690,0.0310	-2276.55
0.9980,0.0020	-2259.88
0.9319,0.0681	-2277.18
0.8259,0.1741	-2292.07
0.8863,0.1137	-2284.26
0.9868,0.0132	-2260.98
0.9757,0.0243	-2269.48
0.9980,0.0020	-2259.88
0.9225,0.0775	-2282.62
0.8040,0.1960	-2306.63
0.8934,0.1066	-2285.98
0.9888,0.0112	-2265.26
0.9730,0.0270	-2269.54
0.9982,0.0018	-2259.86
0.9412,0.0588	-2276.80
0.8200,0.1800	-2309.22
0.8844,0.1156	-2290.48
0.9898,0.0102	-2260.69
0.9692,0.0308	-2276.56
0.9984,0.0016	-2259.84
0.9339,0.0661	-2290.33
0.8230,0.1770	-2310.74
0.8859,0.1141	-2286.34
0.9909,0.0091	-2260.58
0.9727,0.0273	-2273.12
0.9981,0.0019	-2259.87
0.9454,0.0546	-2270.96
0.8308,0.1692	-2296.46
0.9166,0.0834	-2285.20
0.9921,0.0079	-2260.46
0.9738,0.0262	-2269.52
0.9984,0.0016	-2259.84
0.9467,0.0533	-2285.25
0.8170,0.1830	-2300.28
0.9237,0.0763	-2290.07
0.9912,0.0088	-2260.55
0.9702,0.0298	-2269.62
0.9986,0.0014	-2259.83
0.9463,0.0537	-2276.64
0.8182,0.1818	-2298.71
0.9314,0.0686	-2279.81
0.9897,0.0103	-2265.26
0.9677,0.0323	-2283.31
0.9986,0.0014	-2259.82
0.9357,0.0643	-2279.69
0.8584,0.1416	-2306.01
0.9298,0.0702	-2274.70
0.9901,0.0099	-2265.26
0.9703,0.0297	-2266.13
0.9986,0.0014	-2259.82
0.9260,0.0740	-2274.95
0.8933,0.1067	-2283.86
0.9105,0.0895	-2283.03
0.9891,0.0109	-2260.75
0.9781,0.0219	-2265.65
0.9987,0.0013	-2259.82
0.9242,0.0758	-2277.57
0.9002,0.0998	-2287.90
0.9098,0.0902	-2273.82
0.9897,0.0103	-2260.70
0.9768,0.0232	-2265.73
0.9987,0.0013	-2259.81
0.9321,0.0679	-2277.17
0.9038,0.0962	-2283.33
0.9355,0.0645	-2274.34
0.9884,0.0116	-2260.83
0.9799,0.0201	-2265.56
0.9988,0.0012	-2259.80
0.9415,0.0585	-2274.01
0.9063,0.0937	-2285.48
0.9392,0.0608	-2274.14
0.9904,0.0096	-2260.63
0.9806,0.0194	-2269.45
0.9992,0.0008	-2259.76
0.9509,0.0491	-2273.56
0.9186,0.0814	-2275.47
0.9427,0.0573	-2279.55
0.9929,0.0071	-2260.38
0.9803,0.0197	-2265.54
0.9993,0.0007	-2259.75
0.9447,0.0553	-2276.68
0.9082,0.0918	-2287.71
0.9556,0.0444	-2276.45
0.9930,0.0070	-2260.37
0.9804,0.0196	-2265.54
0.9992,0.0008	-2259.76
0.9381,0.0619	-2282.35
0.9278,0.0722	-2287.60
0.9594,0.0406	-2270.10
0.9943,0.0057	-2260.25
0.9776,0.0224	-2265.68
0.9992,0.0008	-2259.77
0.9360,0.0640	-2277.00
0.9267,0.0733	-2274.90
0.9602,0.0398	-2270.06
0.9937,0.0063	-2260.30
0.9784,0.0216	-2269.45
0.9992,0.0008	-2259.76
0.9407,0.0593	-2271.29
0.9374,0.0626	-2276.94
0.9543,0.0457	-2267.35
0.9916,0.0084	-2265.28
0.9757,0.0243	-2262.10
0.9993,0.0007	-2259.75
0.9417,0.0583	-2279.56
0.9426,0.0574	-2279.55
0.9600,0.0400	-2273.24
0.9916,0.0084	-2265.28
0.9731,0.0269	-2265.95
0.9992,0.0008	-2259.76
0.9330,0.0670	-2279.77
0.9386,0.0614	-2287.80
0.9450,0.0550	-2268.14
0.9935,0.0065	-2260.32
0.9711,0.0289	-2266.08
0.9994,0.0006	-2259.74
0.9370,0.0630	-2279.66
0.9403,0.0597	-2282.34
0.9337,0.0663	-2287.68
0.9919,0.0081	-2265.29
0.9746,0.0254	-2269.50
0.9994,0.0006	-2259.74
0.9168,0.0832	-2294.80
0.9278,0.0722	-2277.38
0.9433,0.0567	-2282.35
0.9933,0.0067	-2260.34
0.9742,0.0258	-2265.88
0.9994,0.0006	-2259.74
0.9103,0.0897	-2289.99
0.9364,0.0636	-2279.67
0.9463,0.0537	-2273.77
0.9931,0.0069	-2260.36
0.9734,0.0266	-2276.73
0.9995,0.0005	-2259.74
0.9054,0.0946	-2278.73
0.9358,0.0642	-2279.69
0.9506,0.0494	-2270.61
0.9918,0.0082	-2270.08
0.9732,0.0268	-2265.94
0.9994,0.0006	-2259.74
0.9044,0.0956	-2287.79
0.9373,0.0627	-2276.95
0.9478,0.0522	-2276.59
0.9920,0.0080	-2270.11
0.9759,0.0241	-2269.48
0.9995,0.0005	-2267.33
0.9085,0.0915	-2278.52
0.9257,0.0743	-2290.11
0.9509,0.0491	-2276.52
0.9901,0.0099	-2265.26
0.9775,0.0225	-2265.68
0.9995,0.0005	-2259.73
0.9198,0.0802	-2277.82
0.9324,0.0676	-2271.91
0.9448,0.0552	-2276.68
0.9908,0.0092	-2265.27
0.9755,0.0245	-2262.11
0.9996,0.0004	-2259.73
0.9246,0.0754	-2277.55
0.9411,0.0589	-2279.57
0.9385,0.0615	-2274.18
0.9924,0.0076	-2260.43
0.9740,0.0260	-2273.14
0.9997,0.0003	-2259.71
0.9320,0.0680	-2287.65
0.9421,0.0579	-2276.77
0.9391,0.0609	-2282.35
0.9935,0.0065	-2270.37
0.9743,0.0257	-2269.51
0.9996,0.0004	-2267.57
0.9254,0.0746	-2272.47
0.9534,0.0466	-2270.44
0.9232,0.0768	-2287.57
0.9922,0.0078	-2260.45
0.9740,0.0260	-2273.14
0.9997,0.0003	-2259.71
0.9138,0.0862	-2282.90
0.9566,0.0434	-2279.53
0.9220,0.0780	-2294.98
0.9908,0.0092	-2260.59
0.9744,0.0256	-2269.51
0.9997,0.0003	-2259.71
0.9120,0.0880	-2282.97
0.9541,0.0459	-2282.54
0.9266,0.0734	-2279.98
0.9906,0.0094	-2265.26
0.9770,0.0230	-2273.21
0.9997,0.0003	-2259.72
0.9145,0.0855	-2282.88
0.9581,0.0419	-2270.17
0.9337,0.0663	-2282.39
0.9921,0.0079	-2265.29
0.9785,0.0215	-2265.63
0.9996,0.0004	-2259.72
0.8973,0.1027	-2292.32
0.9693,0.0307	-2269.65
0.9094,0.0906	-2290.00
0.9927,0.0073	-2260.40
0.9766,0.0234	-2276.93
0.9995,0.0005	-2259.74
0.8992,0.1008	-2283.55
0.9714,0.0286	-2273.11
0.9133,0.0867	-2287.63
0.9903,0.0097	-2269.89
0.9807,0.0193	-2265.52
0.9993,0.0007	-2259.75
0.9032,0.0968	-2290.05
0.9751,0.0249	-2265.83
0.9178,0.0822	-2275.53
0.9911,0.0089	-2260.55
0.9812,0.0188	-2269.45
0.9992,0.0008	-2266.84
0.8920,0.1080	-2283.93
0.9790,0.0210	-2265.60
0.9066,0.0934	-2285.47
0.9897,0.0103	-2265.26
0.9738,0.0262	-2276.75
0.9989,0.0011	-2266.64
0.8900,0.1100	-2281.96
0.9761,0.0239	-2262.06
0.9059,0.0941	-2294.55
0.9875,0.0125	-2260.91
0.9625,0.0375	-2263.45
0.9988,0.0012	-2259.80
0.8928,0.1072	-2286.01
0.9632,0.0368	-2279.70
0.9135,0.0865	-2292.34
0.9860,0.0140	-2278.09
0.9549,0.0451	-2276.46
0.9988,0.0012	-2259.80
0.9013,0.0987	-2283.45
0.9664,0.0336	-2286.57
0.9105,0.0895	-2283.03
0.9884,0.0116	-2265.27
0.9586,0.0414	-2273.28
0.9985,0.0015	-2259.83
0.9039,0.0961	-2285.56
0.9659,0.0341	-2269.79
0.8945,0.1055	-2281.66
0.9896,0.0104	-2265.26
0.9604,0.0396	-2276.42
0.9983,0.0017	-2259.85
0.9031,0.0969	-2292.29
0.9642,0.0358	-2269.86
0.8875,0.1125	-2298.65
0.9891,0.0109	-2269.77
0.9644,0.0356	-2266.55
0.9983,0.0017	-2259.85
0.9227,0.0773	-2285.09
0.9582,0.0418	-2279.56
0.8883,0.1117	-2284.15
0.9833,0.0167	-2265.41
0.9714,0.0286	-2287.21
0.9983,0.0017	-2259.85
0.9123,0.0877	-2282.96
0.9486,0.0514	-2279.49
0.9047,0.0953	-2287.78
0.9832,0.0168	-2261.34
0.9658,0.0342	-2273.13
0.9983,0.0017	-2259.85
0.9264,0.0736	-2282.52
0.9529,0.0471	-2270.47
0.9044,0.0956	-2294.53
0.9847,0.0153	-2265.35
0.9654,0.0346	-2269.81
0.9979,0.0021	-2259.89
0.9166,0.0834	-2285.20
0.9531,0.0469	-2282.51
0.9009,0.0991	-2290.09
0.9865,0.0135	-2273.89
0.9674,0.0326	-2262.95
0.9980,0.0020	-2259.88
0.9126,0.0874	-2289.99
0.9546,0.0454	-2273.42
0.9120,0.0880	-2280.64
0.9867,0.0133	-2265.30
0.9687,0.0313	-2269.68
0.9980,0.0020	-2272.29
0.9101,0.0899	-2287.68
0.9590,0.0410	-2273.27
0.9183,0.0817	-2285.17
0.9843,0.0157	-2265.37
0.9653,0.0347	-2269.81
0.9979,0.0021	-2259.89
0.8971,0.1029	-2285.82
0.9626,0.0374	-2266.69
0.9256,0.0744	-2297.67
0.9865,0.0135	-2269.60
0.9704,0.0296	-2266.13
0.9980,0.0020	-2259.88
0.8934,0.1066	-2285.98
0.9546,0.0454	-2270.37
0.9248,0.0752	-2280.05
0.9873,0.0127	-2265.29
0.9751,0.0249	-2265.82
0.9975,0.0025	-2259.93
0.9003,0.0997	-2283.50
0.9520,0.0480	-2267.54
0.9315,0.0685	-2285.03
0.9889,0.0111	-2260.77
0.9749,0.0251	-2269.50
0.9974,0.0026	-2259.94
0.9029,0.0971	-2281.14
0.9622,0.0378	-2279.67
0.9503,0.0497	-2276.54
0.9847,0.0153	-2265.36
0.9725,0.0275	-2269.55
0.9975,0.0025	-2259.93
0.8936,0.1064	-2290.23
0.9525,0.0475	-2264.50
0.9481,0.0519	-2282.40
0.9881,0.0119	-2265.27
0.9719,0.0281	-2269.57
0.9967,0.0033	-2260.00
0.9072,0.0928	-2285.45
0.9588,0.0412	-2276.43
0.9572,0.0428	-2273.33
0.9887,0.0113	-2265.27
0.9770,0.0230	-2269.46
0.9968,0.0032	-2259.99
0.8921,0.1079	-2283.93
0.9555,0.0445	-2270.31
0.9533,0.0467	-2285.53
0.9874,0.0126	-2260.93
0.9767,0.0233	-2265.73
0.9974,0.0026	-2259.94
0.9165,0.0835	-2285.20
0.9557,0.0443	-2285.66
0.9479,0.0521	-2270.79
0.9855,0.0145	-2265.33
0.9738,0.0262	-2262.29
0.9974,0.0026	-2259.94
0.9117,0.0883	-2287.65
0.9512,0.0488	-2273.55
0.9511,0.0489	-2270.59
0.9842,0.0158	-2265.38
0.9647,0.0353	-2276.46
0.9977,0.0023	-2259.91
0.9248,0.0752	-2275.03
0.9574,0.0426	-2270.21
0.9637,0.0363	-2269.88
0.9824,0.0176	-2273.49
0.9581,0.0419	-2276.43
0.9977,0.0023	-2259.91
0.9210,0.0790	-2282.66
0.9587,0.0413	-2273.28
0.9636,0.0364	-2266.61
0.9767,0.0233	-2276.94
0.9605,0.0395	-2273.23
0.9978,0.0022	-2259.90
0.9453,0.0547	-2276.66
0.9496,0.0504	-2267.74
0.9590,0.0410	-2279.58
0.9805,0.0195	-2261.61
0.9562,0.0438	-2264.11
0.9980,0.0020	-2259.88
0.9434,0.0566	-2282.35
0.9519,0.0481	-2279.49
0.9516,0.0484	-2273.53
0.9734,0.0266	-2276.73
0.9475,0.0525	-2276.60
0.9977,0.0023	-2259.90
0.9359,0.0641	-2279.69
0.9331,0.0669	-2285.03
0.9462,0.0538	-2282.37
0.9795,0.0205	-2277.18
0.9477,0.0523	-2273.70
0.9977,0.0023	-2259.91
0.9465,0.0535	-2273.75
0.9517,0.0483	-2267.56
0.9446,0.0554	-2285.19
0.9765,0.0235	-2262.02
0.9560,0.0440	-2279.52
0.9976,0.0024	-2259.92
0.9443,0.0557	-2276.70
0.9508,0.0492	-2273.56
0.9546,0.0454	-2267.32
0.9628,0.0372	-2282.94
0.9421,0.0579	-2279.56
0.9976,0.0024	-2259.92
0.9496,0.0504	-2267.74
0.9500,0.0500	-2270.65
0.9582,0.0418	-2279.56
0.9624,0.0376	-2269.95
0.9311,0.0689	-2279.82
0.9976,0.0024	-2259.92
0.9443,0.0557	-2290.85
0.9634,0.0366	-2266.63
0.9633,0.0367	-2273.17
0.9582,0.0418	-2267.03
0.9378,0.0622	-2279.64
0.9975,0.0025	-2259.93
0.9547,0.0453	-2279.51
0.9655,0.0345	-2269.81
0.9581,0.0419	-2273.30
0.9683,0.0317	-2276.53
0.9381,0.0619	-2282.35
0.9969,0.0031	-2259.99
0.9584,0.0416	-2267.02
0.9721,0.0279	-2269.56
0.9588,0.0412	-2263.83
0.9688,0.0312	-2276.54
0.9425,0.0575	-2273.96
0.9974,0.0026	-2259.94
0.9514,0.0486	-2270.56
0.9701,0.0299	-2269.63
0.9589,0.0411	-2266.97
0.9712,0.0288	-2262.55
0.9474,0.0526	-2273.71
0.9974,0.0026	-2259.94
0.9512,0.0488	-2270.58
0.9703,0.0297	-2287.06
0.9698,0.0302	-2269.64
0.9710,0.0290	-2273.11
0.9474,0.0526	-2273.71
0.9978,0.0022	-2259.90
0.9456,0.0544	-2273.80
0.9780,0.0220	-2261.86
0.9691,0.0309	-2269.66
0.9681,0.0319	-2269.70
0.9550,0.0450	-2270.35
0.9981,0.0019	-2259.87
0.9597,0.0403	-2266.91
0.9805,0.0195	-2281.20
0.9720,0.0280	-2266.02
0.9666,0.0334	-2273.12
0.9465,0.0535	-2268.01
0.9983,0.0017	-2259.85
0.9661,0.0339	-2266.43
0.9806,0.0194	-2269.45
0.9706,0.0294	-2266.12
0.9717,0.0283	-2269.58
0.9545,0.0455	-2273.42
0.9984,0.0016	-2259.85
0.9645,0.0355	-2276.45
0.9732,0.0268	-2265.95
0.9713,0.0287	-2266.07
0.9784,0.0216	-2269.45
0.9651,0.0349	-2266.50
0.9984,0.0016	-2259.84
0.9654,0.0346	-2263.15
0.9650,0.0350	-2263.20
0.9774,0.0226	-2265.69
0.9793,0.0207	-2273.30
0.9628,0.0372	-2279.69
0.9989,0.0011	-2259.80
0.9671,0.0329	-2273.12
0.9601,0.0399	-2266.88
0.9704,0.0296	-2269.62
0.9819,0.0181	-2265.47
0.9631,0.0369	-2279.70
0.9990,0.0010	-2259.78
0.9674,0.0326	-2283.29
0.9415,0.0585	-2279.57
0.9667,0.0333	-2273.12
0.9833,0.0167	-2265.41
0.9523,0.0477	-2270.51
0.9991,0.0009	-2259.77
0.9644,0.0356	-2279.75
0.9446,0.0554	-2268.18
0.9617,0.0383	-2266.76
0.9806,0.0194	-2261.60
0.9562,0.0438	-2273.36
0.9989,0.0011	-2259.79
0.9752,0.0248	-2269.49
0.9434,0.0566	-2279.54
0.9672,0.0328	-2276.50
0.9767,0.0233	-2269.47
0.9509,0.0491	-2267.63
0.9988,0.0012	-2259.81
0.9683,0.0317	-2266.27
0.9408,0.0592	-2265.75
0.9637,0.0363	-2273.17
0.9774,0.0226	-2265.69
0.9613,0.0387	-2282.85
0.9988,0.0012	-2259.80
0.9646,0.0354	-2273.15
0.9531,0.0469	-2270.46
0.9678,0.0322	-2262.90
0.9748,0.0252	-2276.81
0.9543,0.0457	-2270.39
0.9987,0.0013	-2259.81
0.9660,0.0340	-2263.09
0.9438,0.0562	-2268.25
0.9671,0.0329	-2269.74
0.9768,0.0232	-2265.73
0.9563,0.0437	-2276.44
0.9988,0.0012	-2259.81
0.9623,0.0377	-2269.95
0.9378,0.0622	-2282.35
0.9546,0.0454	-2279.51
0.9762,0.0238	-2265.76
0.9562,0.0438	-2270.28
0.9988,0.0012	-2259.80
0.9655,0.0345	-2293.12
0.9436,0.0564	-2279.53
0.9505,0.0495	-2279.49
0.9764,0.0236	-2269.47
0.9537,0.0463	-2273.45
0.9990,0.0010	-2266.70
0.9701,0.0299	-2273.11
0.9469,0.0531	-2279.50
0.9417,0.0583	-2276.78
0.9760,0.0240	-2269.48
0.9453,0.0547	-2279.51
0.9991,0.0009	-2266.84
0.9781,0.0219	-2273.25
0.9511,0.0489	-2273.55
0.9503,0.0497	-2270.63
0.9748,0.0252	-2273.15
0.9465,0.0535	-2279.50
0.9990,0.0010	-2259.78
0.9798,0.0202	-2261.68
0.9566,0.0434	-2270.25
0.9582,0.0418	-2285.83
0.9744,0.0256	-2265.87
0.9423,0.0577	-2279.55
0.9991,0.0009	-2259.77
0.9814,0.0186	-2265.49
0.9492,0.0508	-2273.63
0.9584,0.0416	-2270.15
0.9756,0.0244	-2265.79
0.9313,0.0687	-2274.60
0.9989,0.0011	-2259.79
0.9829,0.0171	-2269.48
0.9448,0.0552	-2276.68
0.9633,0.0367	-2269.90
0.9680,0.0320	-2273.11
0.9270,0.0730	-2274.89
0.9990,0.0010	-2259.78
0.9826,0.0174	-2261.41
0.9551,0.0449	-2267.28
0.9650,0.0350	-2269.83
0.9693,0.0307	-2273.11
0.9245,0.0755	-2282.57
0.9990,0.0010	-2259.78
0.9765,0.0235	-2265.74
0.9450,0.0550	-2276.67
0.9606,0.0394	-2289.20
0.9530,0.0470	-2282.50
0.9292,0.0708	-2285.04
0.9990,0.0010	-2259.79
0.9785,0.0215	-2261.81
0.9378,0.0622	-2285.07
0.9552,0.0448	-2270.33
0.9582,0.0418	-2270.17
0.9331,0.0669	-2282.40
0.9990,0.0010	-2259.78
0.9770,0.0230	-2273.21
0.9367,0.0633	-2282.36
0.9562,0.0438	-2279.53
0.9658,0.0342	-2276.47
0.9398,0.0602	-2282.35
0.9992,0.0008	-2259.76
0.9667,0.0333	-2269.75
0.9477,0.0523	-2279.49
0.9505,0.0495	-2276.53
0.9559,0.0441	-2273.37
0.9474,0.0526	-2279.50
0.9989,0.0011	-2259.79
0.9590,0.0410	-2276.43
0.9500,0.0500	-2279.49
0.9559,0.0441	-2273.37
0.9514,0.0486	-2267.59
0.9578,0.0422	-2276.43
0.9989,0.0011	-2259.79
0.9649,0.0351	-2269.83
0.9402,0.0598	-2268.57
0.9493,0.0507	-2282.42
0.9437,0.0563	-2271.08
0.9641,0.0359	-2266.58
0.9991,0.0009	-2259.77
0.9665,0.0335	-2269.76
0.9325,0.0675	-2271.91
0.9375,0.0625	-2276.94
0.9488,0.0512	-2285.33
0.9511,0.0489	-2270.58
0.9993,0.0007	-2259.75
0.9628,0.0372	-2266.68
0.9417,0.0583	-2282.34
0.9354,0.0646	-2279.70
0.9503,0.0497	-2276.54
0.9520,0.0480	-2270.53
0.9993,0.0007	-2259.75
0.9584,0.0416	-2273.29
0.9522,0.0478	-2264.53
0.9303,0.0697	-2274.67
0.9549,0.0451	-2267.30
0.9512,0.0488	-2267.61
0.9992,0.0008	-2259.76
0.9513,0.0487	-2273.54
0.9579,0.0421	-2279.56
0.9306,0.0694	-2287.63
0.9589,0.0411	-2270.13
0.9529,0.0471	-2273.48
0.9992,0.0008	-2259.76
0.9656,0.0344	-2269.80
0.9561,0.0439	-2270.28
0.9268,0.0732	-2282.51
0.9581,0.0419	-2263.91
0.9481,0.0519	-2267.87
0.9990,0.0010	-2259.78
0.9669,0.0331	-2276.50
0.9631,0.0369	-2269.91
0.9201,0.0799	-2287.58
0.9534,0.0466	-2273.46
0.9347,0.0653	-2274.40
0.9991,0.0009	-2259.77
0.9639,0.0361	-2283.02
0.9640,0.0360	-2276.45
0.9373,0.0627	-2282.36
0.9544,0.0456	-2273.42
0.9463,0.0537	-2282.37
0.9990,0.0010	-2259.78
0.9717,0.0283	-2266.04
0.9442,0.0558	-2268.21
0.9160,0.0840	-2280.43
0.9520,0.0480	-2282.48
0.9449,0.0551	-2268.15
0.9990,0.0010	-2259.78
0.9658,0.0342	-2269.79
0.9249,0.0751	-2285.07
0.9079,0.0921	-2276.28
0.9473,0.0527	-2279.50
0.9481,0.0519	-2270.78
0.9993,0.0007	-2259.76
0.9692,0.0308	-2266.21
0.9356,0.0644	-2287.72
0.8929,0.1071	-2294.49
0.9538,0.0462	-2267.39
0.9618,0.0382	-2273.20
0.9992,0.0008	-2259.76
0.9679,0.0321	-2269.71
0.9407,0.0593	-2274.05
0.9051,0.0949	-2285.52
0.9440,0.0560	-2273.88
0.9594,0.0406	-2263.77
0.9992,0.0008	-2259.77
0.9688,0.0312	-2273.11
0.9497,0.0503	-2273.61
0.9049,0.0951	-2292.29
0.9360,0.0640	-2282.37
0.9582,0.0418	-2267.03
0.9990,0.0010	-2259.78
0.9737,0.0263	-2265.91
0.9426,0.0574	-2276.75
0.9032,0.0968	-2294.52
0.9369,0.0631	-2285.06
0.9664,0.0336	-2269.77
0.9991,0.0009	-2259.77
0.9705,0.0295	-2269.61
0.9399,0.0601	-2279.59
0.8910,0.1090	-2288.19
0.9439,0.0561	-2276.71
0.9683,0.0317	-2269.69
0.9991,0.0009	-2259.77
0.9745,0.0255	-2269.51
0.9438,0.0562	-2273.89
0.9039,0.0961	-2285.56
0.9489,0.0511	-2285.33
0.9569,0.0431	-2270.24
0.9991,0.0009	-2259.77
0.9694,0.0306	-2266.19
0.9484,0.0516	-2276.58
0.8831,0.1169	-2288.50
0.9569,0.0431	-2270.24
0.9495,0.0505	-2273.62
0.9991,0.0009	-2259.77
0.9791,0.0209	-2265.60
0.9404,0.0596	-2274.07
0.9097,0.0903	-2283.07
0.9586,0.0414	-2279.57
0.9597,0.0403	-2270.08
0.9991,0.0009	-2259.78
0.9769,0.0231	-2269.47
0.9420,0.0580	-2268.41
0.9004,0.0996	-2285.69
0.9515,0.0485	-2276.51
0.9634,0.0366	-2273.17
0.9992,0.0008	-2259.76
0.9827,0.0173	-2265.43
0.9483,0.0517	-2273.67
0.9181,0.0819	-2280.34
0.9515,0.0485	-2273.53
0.9558,0.0442	-2276.45
0.9992,0.0008	-2259.77
0.9842,0.0158	-2265.37
0.9498,0.0502	-2273.61
0.9040,0.0960	-2283.32
0.9593,0.0407	-2276.42
0.9613,0.0387	-2273.21
0.9991,0.0009	-2259.78
0.9849,0.0151	-2265.35
0.9407,0.0593	-2271.28
0.9126,0.0874	-2287.64
0.9554,0.0446	-2273.39
0.9625,0.0375	-2276.43
0.9991,0.0009	-2259.78
0.9837,0.0163	-2265.39
0.9326,0.0674	-2271.90
0.9183,0.0817	-2280.33
0.9516,0.0484	-2270.55
0.9566,0.0434	-2267.16
0.9991,0.0009	-2259.78
0.9812,0.0188	-2269.45
0.9320,0.0680	-2279.80
0.9183,0.0817	-2282.75
0.9516,0.0484	-2273.53
0.9609,0.0391	-2279.63
0.9992,0.0008	-2259.76
0.9779,0.0221	-2273.25
0.9219,0.0781	-2280.17
0.9360,0.0640	-2271.63
0.9540,0.0460	-2276.47
0.9690,0.0310	-2266.23
0.9990,0.0010	-2259.78
0.9773,0.0227	-2269.46
0.9350,0.0650	-2271.71
0.9455,0.0545	-2285.22
0.9514,0.0486	-2273.54
0.9661,0.0339	-2266.43
0.9992,0.0008	-2259.76
0.9743,0.0257	-2265.88
0.9449,0.0551	-2273.84
0.9235,0.0765	-2290.07
0.9570,0.0430	-2273.33
0.9591,0.0409	-2270.12
0.9991,0.0009	-2259.77
0.9768,0.0232	-2265.73
0.9354,0.0646	-2282.37
0.9157,0.0843	-2285.22
0.9563,0.0437	-2273.36
0.9519,0.0481	-2270.53
0.9992,0.0008	-2259.76
0.9735,0.0265	-2265.92
0.9428,0.0572	-2282.35
0.8948,0.1052	-2296.62
0.9629,0.0371	-2269.92
0.9502,0.0498	-2279.49
0.9992,0.0008	-2259.76
0.9734,0.0266	-2269.53
0.9301,0.0699	-2269.50
0.8910,0.1090	-2290.29
0.9655,0.0345	-2273.14
0.9527,0.0473	-2273.49
0.9994,0.0006	-2259.75
0.9749,0.0251	-2269.50
0.9188,0.0812	-2285.16
0.8868,0.1132	-2288.35
0.9589,0.0411	-2266.97
0.9454,0.0546	-2279.51
0.9994,0.0006	-2259.74
0.9746,0.0254	-2265.85
0.9046,0.0954	-2283.29
0.8928,0.1072	-2294.49
0.9646,0.0354	-2276.45
0.9522,0.0478	-2282.48
0.9994,0.0006	-2259.75
0.9687,0.0313	-2266.24
0.8988,0.1012	-2285.75
0.8938,0.1062	-2285.96
0.9720,0.0280	-2269.57
0.9558,0.0442	-2279.52
0.9993,0.0007	-2259.75
0.9665,0.0335	-2266.40
0.9101,0.0899	-2285.36
0.8994,0.1006	-2290.11
0.9777,0.0223	-2265.67
0.9547,0.0453	-2276.46
0.9993,0.0007	-2259.75
0.9605,0.0395	-2273.23
0.9194,0.0806	-2285.15
0.9048,0.0952	-2276.53
0.9768,0.0232	-2265.73
0.9547,0.0453	-2267.32
0.9992,0.0008	-2259.77
0.9643,0.0357	-2276.45
0.9229,0.0771	-2282.61
0.9200,0.0800	-2287.58
0.9706,0.0294	-2283.60
0.9481,0.0519	-2270.78
0.9993,0.0007	-2259.76
0.9627,0.0373	-2276.43
0.9128,0.0872	-2285.29
0.9171,0.0829	-2282.79
0.9769,0.0231	-2261.98
0.9460,0.0540	-2279.51
0.9993,0.0007	-2259.75
0.9587,0.0413	-2266.99
0.9310,0.0690	-2279.83
0.9300,0.0700	-2279.86
0.9740,0.0260	-2269.52
0.9543,0.0457	-2282.54
0.9994,0.0006	-2259.74
0.9578,0.0422	-2267.07
0.9270,0.0730	-2282.51
0.9046,0.0954	-2287.79
0.9785,0.0215	-2269.45
0.9565,0.0435	-2270.26
0.9995,0.0005	-2259.74
0.9604,0.0396	-2270.04
0.9281,0.0719	-2282.48
0.8988,0.1012	-2279.20
0.9788,0.0212	-2261.78
0.9639,0.0361	-2266.59
0.9995,0.0005	-2259.73
0.9668,0.0332	-2266.38
0.9447,0.0553	-2271.00
0.8851,0.1149	-2286.38
0.9802,0.0198	-2269.45
0.9664,0.0336	-2266.41
0.9995,0.0005	-2259.73
0.9618,0.0382	-2273.20
0.9534,0.0466	-2273.46
0.8895,0.1105	-2286.16
0.9810,0.0190	-2269.45
0.9683,0.0317	-2276.53
0.9994,0.0006	-2259.74
0.9657,0.0343	-2273.13
0.9577,0.0423	-2273.31
0.8852,0.1148	-2282.29
0.9787,0.0213	-2265.62
0.9700,0.0300	-2269.63
0.9993,0.0007	-2259.75
0.9622,0.0378	-2266.72
0.9576,0.0424	-2276.43
0.8895,0.1105	-2288.25
0.9734,0.0266	-2269.53
0.9622,0.0378	-2269.96
0.9994,0.0006	-2259.75
0.9555,0.0445	-2273.38
0.9585,0.0415	-2270.15
0.8715,0.1285	-2292.88
0.9749,0.0251	-2276.82
0.9619,0.0381	-2276.43
0.9992,0.0008	-2259.77
0.9552,0.0448	-2279.51
0.9582,0.0418	-2279.56
0.8766,0.1234	-2292.72
0.9762,0.0238	-2269.47
0.9677,0.0323	-2266.32
0.9992,0.0008	-2259.77
0.9649,0.0351	-2266.52
0.9625,0.0375	-2266.70
0.8734,0.1266	-2290.89
0.9742,0.0258	-2265.88
0.9777,0.0223	-2269.46
0.9989,0.0011	-2259.79
0.9622,0.0378	-2286.14
0.9609,0.0391	-2273.22
0.8856,0.1144	-2290.45
0.9681,0.0319	-2266.28
0.9798,0.0202	-2265.56
0.9989,0.0011	-2266.57
0.9566,0.0434	-2279.53
0.9563,0.0437	-2273.36
0.8911,0.1089	-2283.99
0.9696,0.0304	-2266.18
0.9801,0.0199	-2261.65
0.9990,0.0010	-2259.78
0.9531,0.0469	-2270.46
0.9646,0.0354	-2266.54
0.9100,0.0900	-2285.37
0.9659,0.0341	-2263.10
0.9843,0.0157	-2261.23
0.9992,0.0008	-2259.77
0.9565,0.0435	-2276.44
0.9672,0.0328	-2269.73
0.9164,0.0836	-2287.60
0.9687,0.0313	-2279.97
0.9858,0.0142	-2269.56
0.9990,0.0010	-2259.78
0.9669,0.0331	-2269.74
0.9540,0.0460	-2276.47
0.9209,0.0791	-2280.21
0.9678,0.0322	-2286.73
0.9863,0.0137	-2265.31
0.9990,0.0010	-2259.78
0.9696,0.0304	-2276.57
0.9535,0.0465	-2273.46
0.9251,0.0749	-2287.58
0.9556,0.0444	-2270.31
0.9851,0.0149	-2269.54
0.9989,0.0011	-2259.79
0.9699,0.0301	-2269.63
0.9511,0.0489	-2285.42
0.9129,0.0871	-2285.29
0.9556,0.0444	-2279.52
0.9836,0.0164	-2269.49
0.9989,0.0011	-2266.59
0.9692,0.0308	-2269.66
0.9522,0.0478	-2276.50
0.9076,0.0924	-2287.72
0.9566,0.0434	-2282.63
0.9856,0.0144	-2265.33
0.9987,0.0013	-2259.81
0.9712,0.0288	-2269.59
0.9647,0.0353	-2266.53
0.9144,0.0856	-2285.25
0.9579,0.0421	-2276.43
0.9864,0.0136	-2273.87
0.9988,0.0012	-2259.80
0.9727,0.0273	-2273.12
0.9626,0.0374	-2276.43
0.9099,0.0901	-2283.06
0.9617,0.0383	-2269.98
0.9867,0.0133	-2269.60
0.9987,0.0013	-2259.82
0.9806,0.0194	-2261.61
0.9548,0.0452	-2276.46
0.9216,0.0784	-2280.18
0.9653,0.0347	-2266.48
0.9840,0.0160	-2273.62
0.9987,0.0013	-2259.82
0.9830,0.0170	-2269.48
0.9629,0.0371	-2269.92
0.9260,0.0740	-2274.95
0.9643,0.0357	-2263.27
0.9819,0.0181	-2273.45
0.9989,0.0011	-2259.80
0.9832,0.0168	-2265.41
0.9626,0.0374	-2266.69
0.9243,0.0757	-2280.07
0.9657,0.0343	-2269.80
0.9824,0.0176	-2261.42
0.9989,0.0011	-2259.79
0.9824,0.0176	-2265.45
0.9577,0.0423	-2270.19
0.9355,0.0645	-2279.70
0.9736,0.0264	-2273.13
0.9843,0.0157	-2265.37
0.9988,0.0012	-2266.54
0.9824,0.0176	-2261.42
0.9586,0.0414	-2270.14
0.9394,0.0606	-2282.35
0.9754,0.0246	-2265.81
0.9868,0.0132	-2269.61
0.9988,0.0012	-2259.80
0.9745,0.0255	-2265.86
0.9539,0.0461	-2264.36
0.9450,0.0550	-2276.67
0.9757,0.0243	-2265.79
0.9845,0.0155	-2265.36
0.9990,0.0010	-2259.78
0.9753,0.0247	-2265.82
0.9567,0.0433	-2267.15
0.9444,0.0556	-2290.86
0.9779,0.0221	-2269.45
0.9846,0.0154	-2261.20
0.9991,0.0009	-2259.77
0.9767,0.0233	-2265.73
0.9581,0.0419	-2273.30
0.9465,0.0535	-2268.01
0.9744,0.0256	-2269.51
0.9845,0.0155	-2261.21
0.9990,0.0010	-2259.78
0.9731,0.0269	-2265.95
0.9540,0.0460	-2264.34
0.9385,0.0615	-2271.45
0.9785,0.0215	-2277.08
0.9817,0.0183	-2261.49
0.9990,0.0010	-2259.79
0.9736,0.0264	-2273.13
0.9470,0.0530	-2288.15
0.9362,0.0638	-2274.31
0.9815,0.0185	-2265.48
0.9801,0.0199	-2269.45
0.9992,0.0008	-2259.76
0.9637,0.0363	-2279.72
0.9477,0.0523	-2279.49
0.9256,0.0744	-2290.10
0.9792,0.0208	-2269.45
0.9826,0.0174	-2273.50
0.9992,0.0008	-2259.76
0.9720,0.0280	-2266.02
0.9446,0.0554	-2282.36
0.9226,0.0774	-2275.18
0.9777,0.0223	-2269.46
0.9841,0.0159	-2261.25
0.9992,0.0008	-2259.76
0.9691,0.0309	-2262.77
0.9421,0.0579	-2279.56
0.9358,0.0642	-2279.69
0.9738,0.0262	-2262.29
0.9863,0.0137	-2273.86
0.9991,0.0009	-2259.77
0.9703,0.0297	-2269.62
0.9485,0.0515	-2279.49
0.9495,0.0505	-2267.75
0.9747,0.0253	-2269.50
0.9872,0.0128	-2269.63
0.9989,0.0011	-2259.79
0.9689,0.0311	-2269.67
0.9479,0.0521	-2285.30
0.9422,0.0578	-2273.97
0.9762,0.0238	-2262.05
0.9864,0.0136	-2261.02
0.9990,0.0010	-2259.78
0.9657,0.0343	-2266.46
0.9558,0.0442	-2279.52
0.9398,0.0602	-2274.10
0.9794,0.0206	-2265.58
0.9850,0.0150	-2265.35
0.9991,0.0009	-2266.83
0.9586,0.0414	-2276.43
0.9585,0.0415	-2263.87
0.9290,0.0710	-2292.75
0.9800,0.0200	-2265.56
0.9839,0.0161	-2261.27
0.9990,0.0010	-2259.78
0.9505,0.0495	-2279.49
0.9588,0.0412	-2276.43
0.9309,0.0691	-2277.23
0.9843,0.0157	-2273.65
0.9818,0.0182	-2261.48
0.9988,0.0012	-2259.80
0.9510,0.0490	-2270.59
0.9591,0.0409	-2273.27
0.9344,0.0656	-2285.04
0.9860,0.0140	-2265.32
0.9829,0.0171	-2265.42
0.9985,0.0015	-2259.83
0.9471,0.0529	-2276.61
0.9622,0.0378	-2273.19
0.9208,0.0792	-2280.21
0.9846,0.0154	-2265.36
0.9812,0.0188	-2273.41
0.9983,0.0017	-2259.85
0.9508,0.0492	-2273.56
0.9574,0.0426	-2263.99
0.9430,0.0570	-2279.54
0.9825,0.0175	-2261.41
0.9838,0.0162	-2269.49
0.9978,0.0022	-2259.90
0.9420,0.0580	-2279.56
0.9461,0.0539	-2279.51
0.9563,0.0437	-2267.18
0.9823,0.0177	-2269.46
0.9833,0.0167	-2269.48
0.9977,0.0023	-2259.91
0.9195,0.0805	-2282.71
0.9568,0.0432	-2270.24
0.9622,0.0378	-2273.19
0.9829,0.0171	-2261.37
0.9846,0.0154	-2261.20
0.9978,0.0022	-2259.90
0.9085,0.0915	-2285.41
0.9642,0.0358	-2273.16
0.9608,0.0392	-2270.03
0.9835,0.0165	-2269.49
0.9868,0.0132	-2260.98
0.9976,0.0024	-2259.92
0.9019,0.0981	-2281.20
0.9635,0.0365	-2276.44
0.9580,0.0420	-2267.05
0.9825,0.0175	-2261.41
0.9846,0.0154	-2273.67
0.9977,0.0023	-2259.91
0.9285,0.0715	-2282.48
0.9633,0.0367	-2266.64
0.9545,0.0455	-2276.46
0.9775,0.0225	-2265.69
0.9854,0.0146	-2261.12
0.9981,0.0019	-2266.15
0.9312,0.0688	-2292.85
0.9619,0.0381	-2273.20
0.9539,0.0461	-2282.53
0.9658,0.0342	-2266.45
0.9832,0.0168	-2261.34
0.9981,0.0019	-2259.87
0.9316,0.0684	-2279.81
0.9711,0.0289	-2269.59
0.9564,0.0436	-2273.35
0.9584,0.0416	-2267.02
0.9849,0.0151	-2261.17
0.9979,0.0021	-2259.89
0.9238,0.0762	-2285.08
0.9700,0.0300	-2269.63
0.9638,0.0362	-2263.32
0.9481,0.0519	-2273.68
0.9854,0.0146	-2261.13
0.9979,0.0021	-2259.89
0.9146,0.0854	-2282.88
0.9547,0.0453	-2273.41
0.9687,0.0313	-2266.24
0.9500,0.0500	-2285.38
0.9802,0.0198	-2269.45
0.9973,0.0027	-2259.95
0.9074,0.0926	-2285.44
0.9548,0.0452	-2273.41
0.9687,0.0313	-2269.67
0.9552,0.0448	-2273.40
0.9799,0.0201	-2261.67
0.9972,0.0028	-2259.96
0.9254,0.0746	-2282.54
0.9626,0.0374	-2273.19
0.9702,0.0298	-2269.62
0.9584,0.0416	-2270.15
0.9836,0.0164	-2265.39
0.9976,0.0024	-2259.92
0.9066,0.0934	-2285.47
0.9537,0.0463	-2273.45
0.9638,0.0362	-2276.44
0.9518,0.0482	-2285.45
0.9819,0.0181	-2265.46
0.9979,0.0021	-2259.89
0.8857,0.1143	-2282.25
0.9514,0.0486	-2276.51
0.9659,0.0341	-2283.16
0.9532,0.0468	-2267.44
0.9801,0.0199	-2269.45
0.9984,0.0016	-2259.84
0.8978,0.1022	-2290.14
0.9596,0.0404	-2276.42
0.9554,0.0446	-2273.39
0.9549,0.0451	-2270.35
0.9797,0.0203	-2265.57
0.9982,0.0018	-2259.86
0.9158,0.0842	-2289.99
0.9635,0.0365	-2282.99
0.9577,0.0423	-2267.08
0.9552,0.0448	-2273.39
0.9776,0.0224	-2265.68
0.9985,0.0015	-2259.83
0.8943,0.1057	-2285.94
0.9642,0.0358	-2266.57
0.9536,0.0464	-2276.47
0.9569,0.0431	-2270.24
0.9758,0.0242	-2273.18
0.9990,0.0010	-2259.78
0.9071,0.0929	-2278.62
0.9695,0.0305	-2262.73
0.9444,0.0556	-2276.69
0.9631,0.0369	-2263.39
0.9765,0.0235	-2269.47
0.9988,0.0012	-2259.80
0.9198,0.0802	-2275.38
0.9655,0.0345	-2266.47
0.9284,0.0716	-2282.48
0.9596,0.0404	-2276.42
0.9754,0.0246	-2273.17
0.9986,0.0014	-2259.82
0.9269,0.0731	-2282.51
0.9670,0.0330	-2273.12
0.9122,0.0878	-2287.65
0.9566,0.0434	-2279.53
0.9800,0.0200	-2265.56
0.9986,0.0014	-2259.82
0.9178,0.0822	-2290.00
0.9633,0.0367	-2276.44
0.9331,0.0669	-2285.03
0.9580,0.0420	-2267.04
0.9762,0.0238	-2273.19
0.9986,0.0014	-2259.82
0.9122,0.0878	-2273.60
0.9607,0.0393	-2266.84
0.9332,0.0668	-2282.40
0.9650,0.0350	-2273.14
0.9802,0.0198	-2265.55
0.9987,0.0013	-2259.81
0.9063,0.0937	-2285.48
0.9617,0.0383	-2286.10
0.9336,0.0664	-2274.46
0.9624,0.0376	-2273.19
0.9809,0.0191	-2265.51
0.9984,0.0016	-2259.84
0.9237,0.0763	-2280.09
0.9700,0.0300	-2273.11
0.9266,0.0734	-2277.45
0.9689,0.0311	-2269.67
0.9827,0.0173	-2265.43
0.9977,0.0023	-2259.91
0.9283,0.0717	-2279.92
0.9595,0.0405	-2276.42
0.9353,0.0647	-2279.70
0.9707,0.0293	-2269.61
0.9838,0.0162	-2265.39
0.9980,0.0020	-2259.88
0.9276,0.0724	-2279.94
0.9664,0.0336	-2269.76
0.9391,0.0609	-2282.35
0.9620,0.0380	-2279.66
0.9857,0.0143	-2265.32
0.9982,0.0018	-2259.86
0.9377,0.0623	-2274.22
0.9748,0.0252	-2265.85
0.9442,0.0558	-2271.04
0.9566,0.0434	-2267.16
0.9791,0.0209	-2261.76
0.9981,0.0019	-2259.87
0.9510,0.0490	-2270.59
0.9733,0.0267	-2265.94
0.9527,0.0473	-2273.49
0.9545,0.0455	-2267.33
0.9790,0.0210	-2265.61
0.9982,0.0018	-2259.86
0.9478,0.0522	-2273.70
0.9783,0.0217	-2280.88
0.9550,0.0450	-2273.40
0.9533,0.0467	-2267.43
0.9760,0.0240	-2265.77
0.9985,0.0015	-2259.83
0.9583,0.0417	-2279.56
0.9724,0.0276	-2262.43
0.9448,0.0552	-2288.04
0.9579,0.0421	-2267.05
0.9798,0.0202	-2273.33
0.9985,0.0015	-2259.83
0.9633,0.0367	-2269.90
0.9759,0.0241	-2273.18
0.9557,0.0443	-2273.38
0.9659,0.0341	-2273.13
0.9839,0.0161	-2265.39
0.9988,0.0012	-2259.80
0.9491,0.0509	-2273.64
0.9811,0.0189	-2265.50
0.9651,0.0349	-2279.78
0.9623,0.0377	-2273.19
0.9858,0.0142	-2261.08
0.9990,0.0010	-2259.79
0.9424,0.0576	-2271.16
0.9821,0.0179	-2277.47
0.9659,0.0341	-2269.79
0.9612,0.0388	-2273.22
0.9824,0.0176	-2269.47
0.9990,0.0010	-2259.78
0.9386,0.0614	-2276.90
0.9856,0.0144	-2261.10
0.9707,0.0293	-2280.11
0.9645,0.0355	-2263.24
0.9801,0.0199	-2265.55
0.9986,0.0014	-2259.82
0.9495,0.0505	-2285.36
0.9854,0.0146	-2265.33
0.9644,0.0356	-2273.15
0.9693,0.0307	-2262.75
0.9794,0.0206	-2261.72
0.9986,0.0014	-2259.82
0.9525,0.0475	-2270.49
0.9841,0.0159	-2261.25
0.9683,0.0317	-2262.85
0.9747,0.0253	-2265.85
0.9818,0.0182	-2273.44
0.9987,0.0013	-2259.81
0.9542,0.0458	-2276.47
0.9852,0.0148	-2261.15
0.9720,0.0280	-2262.48
0.9789,0.0211	-2265.61
0.9784,0.0216	-2269.45
0.9988,0.0012	-2266.56
0.9567,0.0433	-2270.25
0.9854,0.0146	-2261.12
0.9664,0.0336	-2276.48
0.9765,0.0235	-2262.02
0.9753,0.0247	-2269.49
0.9988,0.0012	-2259.80
0.9635,0.0365	-2276.44
0.9864,0.0136	-2269.59
0.9718,0.0282	-2273.11
0.9733,0.0267	-2265.94
0.9732,0.0268	-2273.13
0.9988,0.0012	-2259.80
0.9641,0.0359	-2263.29
0.9897,0.0103	-2265.26
0.9717,0.0283	-2280.19
0.9735,0.0265	-2269.53
0.9765,0.0235	-2265.74
0.9982,0.0018	-2259.86
0.9588,0.0412	-2270.13
0.9889,0.0111	-2260.77
0.9808,0.0192	-2261.58
0.9737,0.0263	-2265.91
0.9709,0.0291	-2269.60
0.9986,0.0014	-2259.82
0.9648,0.0352	-2276.46
0.9884,0.0116	-2265.27
0.9775,0.0225	-2265.68
0.9668,0.0332	-2266.38
0.9685,0.0315	-2266.26
0.9984,0.0016	-2259.84
0.9650,0.0350	-2276.46
0.9862,0.0138	-2261.04
0.9740,0.0260	-2265.89
0.9667,0.0333	-2269.76
0.9663,0.0337	-2273.13
0.9986,0.0014	-2259.82
0.9647,0.0353	-2269.84
0.9868,0.0132	-2265.30
0.9681,0.0319	-2273.11
0.9645,0.0355	-2273.15
0.9619,0.0381	-2266.74
0.9990,0.0010	-2259.78
0.9602,0.0398	-2276.42
0.9876,0.0124	-2260.91
0.9686,0.0314	-2276.54
0.9697,0.0303	-2276.57
0.9671,0.0329	-2279.88
0.9990,0.0010	-2259.79
0.9615,0.0385	-2276.43
0.9873,0.0127	-2265.29
0.9644,0.0356	-2286.35
0.9649,0.0351	-2273.15
0.9669,0.0331	-2266.37
0.9989,0.0011	-2266.60
0.9689,0.0311	-2262.79
0.9854,0.0146	-2269.55
0.9560,0.0440	-2279.52
0.9658,0.0342	-2263.11
0.9659,0.0341	-2269.79
0.9992,0.0008	-2259.76
0.9795,0.0205	-2261.72
0.9844,0.0156	-2261.22
0.9602,0.0398	-2273.24
0.9598,0.0402	-2276.42
0.9666,0.0334	-2269.76
0.9993,0.0007	-2259.75
0.9820,0.0180	-2269.46
0.9850,0.0150	-2269.53
0.9630,0.0370	-2266.66
0.9535,0.0465	-2279.50
0.9607,0.0393	-2273.23
0.9992,0.0008	-2259.77
0.9793,0.0207	-2269.45
0.9840,0.0160	-2261.26
0.9512,0.0488	-2273.55
0.9679,0.0321	-2269.71
0.9655,0.0345	-2269.81
0.9993,0.0007	-2259.75
0.9819,0.0181	-2265.47
0.9817,0.0183	-2265.47
0.9493,0.0507	-2270.70
0.9627,0.0373	-2266.68
0.9562,0.0438	-2270.27
0.9993,0.0007	-2259.76
0.9815,0.0185	-2269.46
0.9781,0.0219	-2265.65
0.9592,0.0408	-2273.27
0.9645,0.0355	-2273.15
0.9504,0.0496	-2279.49
0.9992,0.0008	-2259.76
0.9823,0.0177	-2261.43
0.9815,0.0185	-2265.48
0.9467,0.0533	-2285.25
0.9684,0.0316	-2269.69
0.9509,0.0491	-2273.56
0.9993,0.0007	-2259.76
0.9866,0.0134	-2265.30
0.9807,0.0193	-2265.52
0.9415,0.0585	-2282.34
0.9740,0.0260	-2269.52
0.9576,0.0424	-2282.67
0.9991,0.0009	-2259.78
0.9861,0.0139	-2265.31
0.9809,0.0191	-2261.57
0.9501,0.0499	-2273.59
0.9725,0.0275	-2269.55
0.9592,0.0408	-2273.27
0.9990,0.0010	-2259.78
0.9849,0.0151	-2265.35
0.9812,0.0188	-2261.55
0.9521,0.0479	-2264.54
0.9720,0.0280	-2266.02
0.9511,0.0489	-2273.55
0.9991,0.0009	-2259.77
0.9827,0.0173	-2269.47
0.9790,0.0210	-2273.29
0.9540,0.0460	-2276.47
0.9747,0.0253	-2265.85
0.9401,0.0599	-2279.59
0.9991,0.0009	-2259.77
0.9838,0.0162	-2265.39
0.9816,0.0184	-2261.50
0.9598,0.0402	-2273.25
0.9726,0.0274	-2269.55
0.9375,0.0625	-2279.65
0.9991,0.0009	-2259.77
0.9809,0.0191	-2269.45
0.9810,0.0190	-2265.51
0.9465,0.0535	-2282.38
0.9708,0.0292	-2276.61
0.9371,0.0629	-2274.26
0.9989,0.0011	-2266.58
0.9828,0.0172	-2269.47
0.9779,0.0221	-2265.67
0.9501,0.0499	-2279.49
0.9725,0.0275	-2273.12
0.9422,0.0578	-2271.18
0.9988,0.0012	-2259.80
0.9819,0.0181	-2265.47
0.9681,0.0319	-2269.70
0.9570,0.0430	-2270.23
0.9677,0.0323	-2276.51
0.9351,0.0649	-2274.37
0.9984,0.0016	-2259.84
0.9812,0.0188	-2277.36
0.9696,0.0304	-2266.18
0.9638,0.0362	-2276.44
0.9645,0.0355	-2273.15
0.9317,0.0683	-2285.03
0.9979,0.0021	-2259.89
0.9766,0.0234	-2269.47
0.9716,0.0284	-2276.64
0.9666,0.0334	-2273.12
0.9611,0.0389	-2270.01
0.9336,0.0664	-2282.39
0.9978,0.0022	-2266.02
0.9799,0.0201	-2265.56
0.9686,0.0314	-2266.25
0.9642,0.0358	-2279.74
0.9552,0.0448	-2270.33
0.9435,0.0565	-2279.54
0.9981,0.0019	-2259.87
0.9810,0.0190	-2265.50
0.9585,0.0415	-2270.15
0.9594,0.0406	-2270.10
0.9528,0.0472	-2276.49
0.9339,0.0661	-2279.74
0.9986,0.0014	-2266.36
0.9833,0.0167	-2269.48
0.9527,0.0473	-2276.49
0.9611,0.0389	-2266.81
0.9517,0.0483	-2273.52
0.9442,0.0558	-2273.87
0.9981,0.0019	-2259.87
0.9826,0.0174	-2265.43
0.9543,0.0457	-2270.39
0.9650,0.0350	-2273.14
0.9606,0.0394	-2276.42
0.9488,0.0512	-2273.65
0.9981,0.0019	-2266.13
0.9847,0.0153	-2261.20
0.9595,0.0405	-2276.42
0.9657,0.0343	-2273.13
0.9671,0.0329	-2269.74
0.9474,0.0526	-2270.82
0.9977,0.0023	-2259.91
0.9828,0.0172	-2277.56
0.9629,0.0371	-2273.18
0.9578,0.0422	-2267.07
0.9671,0.0329	-2266.36
0.9521,0.0479	-2276.50
0.9975,0.0025	-2259.93
0.9845,0.0155	-2269.51
0.9674,0.0326	-2269.73
0.9554,0.0446	-2270.32
0.9699,0.0301	-2266.16
0.9437,0.0563	-2273.89
0.9970,0.0030	-2265.79
0.9818,0.0182	-2269.46
0.9605,0.0395	-2270.04
0.9585,0.0415	-2288.98
0.9719,0.0281	-2280.20
0.9296,0.0704	-2274.71
0.9969,0.0031	-2259.98
0.9811,0.0189	-2273.40
0.9465,0.0535	-2270.88
0.9564,0.0436	-2270.26
0.9683,0.0317	-2279.95
0.9316,0.0684	-2282.42
0.9969,0.0031	-2259.99
0.9784,0.0216	-2269.45
0.9415,0.0585	-2282.34
0.9595,0.0405	-2266.93
0.9689,0.0311	-2273.11
0.9220,0.0780	-2287.57
0.9975,0.0025	-2259.93
0.9788,0.0212	-2265.62
0.9447,0.0553	-2279.52
0.9632,0.0368	-2269.91
0.9725,0.0275	-2265.99
0.8893,0.1107	-2286.17
0.9975,0.0025	-2259.92
0.9786,0.0214	-2269.45
0.9523,0.0477	-2270.51
0.9771,0.0229	-2265.71
0.9782,0.0218	-2261.84
0.9016,0.0984	-2276.78
0.9980,0.0020	-2259.88
0.9816,0.0184	-2265.48
0.9568,0.0432	-2270.24
0.9731,0.0269	-2273.13
0.9796,0.0204	-2261.70
0.8991,0.1009	-2287.93
0.9977,0.0023	-2259.91
0.9794,0.0206	-2265.59
0.9618,0.0382	-2273.20
0.9696,0.0304	-2266.18
0.9769,0.0231	-2269.47
0.8999,0.1001	-2279.12
0.9974,0.0026	-2259.94
0.9781,0.0219	-2269.45
0.9638,0.0362	-2276.44
0.9702,0.0298	-2280.07
0.9776,0.0224	-2269.46
0.8946,0.1054	-2288.07
0.9974,0.0026	-2265.89
0.9745,0.0255	-2262.22
0.9711,0.0289	-2280.14
0.9713,0.0287	-2269.59
0.9745,0.0255	-2262.22
0.9041,0.0959	-2292.29
0.9973,0.0027	-2265.86
0.9680,0.0320	-2276.52
0.9708,0.0292	-2266.10
0.9739,0.0261	-2280.38
0.9625,0.0375	-2266.70
0.9120,0.0880	-2282.97
0.9976,0.0024	-2259.92
0.9715,0.0285	-2273.11
0.9706,0.0294	-2273.11
0.9669,0.0331	-2269.75
0.9557,0.0443	-2282.59
0.9188,0.0812	-2275.45
0.9971,0.0029	-2259.97
0.9698,0.0302	-2273.11
0.9664,0.0336	-2266.41
0.9701,0.0299	-2269.63
0.9658,0.0342	-2263.11
0.9002,0.0998	-2296.70
0.9963,0.0037	-2265.63
0.9698,0.0302	-2266.17
0.9658,0.0342	-2269.79
0.9688,0.0312	-2269.67
0.9648,0.0352	-2273.15
0.8795,0.1205	-2290.65
0.9960,0.0040	-2260.07
0.9757,0.0243	-2269.48
0.9688,0.0312	-2276.55
0.9695,0.0305	-2276.57
0.9671,0.0329	-2273.12
0.8757,0.1243	-2290.79
0.9956,0.0044	-2260.11
0.9682,0.0318	-2276.53
0.9735,0.0265	-2269.53
0.9710,0.0290	-2273.11
0.9662,0.0338	-2276.48
0.9017,0.0983	-2276.78
0.9956,0.0044	-2260.12
0.9564,0.0436	-2273.35
0.9679,0.0321	-2266.30
0.9713,0.0287	-2269.59
0.9638,0.0362	-2279.73
0.8727,0.1273	-2304.39
0.9943,0.0057	-2265.41
0.9613,0.0387	-2282.85
0.9664,0.0336	-2276.49
0.9654,0.0346	-2266.48
0.9633,0.0367	-2289.51
0.8853,0.1147	-2294.54
0.9946,0.0054	-2260.21
0.9628,0.0372	-2266.67
0.9556,0.0444	-2273.38
0.9701,0.0299	-2269.63
0.9547,0.0453	-2282.56
0.8805,0.1195	-2298.60
0.9941,0.0059	-2260.26
0.9629,0.0371	-2273.18
0.9523,0.0477	-2273.50
0.9695,0.0305	-2266.19
0.9568,0.0432	-2279.53
0.8613,0.1387	-2293.27
0.9920,0.0080	-2265.29
0.9614,0.0386	-2263.57
0.9582,0.0418	-2276.43
0.9715,0.0285	-2262.53
0.9617,0.0383	-2273.20
0.8832,0.1168	-2290.52
0.9899,0.0101	-2265.26
0.9544,0.0456	-2270.38
0.9577,0.0423	-2285.79
0.9747,0.0253	-2265.85
0.9577,0.0423	-2273.31
0.8919,0.1081	-2283.94
0.9898,0.0102	-2269.84
0.9632,0.0368	-2263.38
0.9538,0.0462	-2267.39
0.9754,0.0246	-2273.17
0.9601,0.0399	-2266.88
0.8937,0.1063	-2283.84
0.9919,0.0081	-2270.09
0.9613,0.0387	-2273.21
0.9439,0.0561	-2276.71
0.9736,0.0264	-2265.92
0.9554,0.0446	-2276.45
0.8858,0.1142	-2290.44
0.9921,0.0079	-2265.29
0.9521,0.0479	-2267.53
0.9458,0.0542	-2273.79
0.9726,0.0274	-2262.41
0.9632,0.0368	-2263.38
0.9040,0.0960	-2281.08
0.9909,0.0091	-2260.58
0.9471,0.0529	-2282.38
0.9422,0.0578	-2276.76
0.9696,0.0304	-2266.18
0.9600,0.0400	-2276.42
0.8907,0.1093	-2288.20
0.9922,0.0078	-2265.29
0.9468,0.0532	-2279.50
0.9365,0.0635	-2282.36
0.9602,0.0398	-2266.87
0.9584,0.0416	-2273.29
0.8913,0.1087	-2286.08
0.9937,0.0063	-2260.31
0.9475,0.0525	-2273.71
0.9338,0.0662	-2279.74
0.9403,0.0597	-2274.08
0.9618,0.0382	-2273.20
0.8801,0.1199	-2290.63
0.9922,0.0078	-2265.29
0.9407,0.0593	-2282.34
0.9374,0.0626	-2274.23
0.9256,0.0744	-2280.02
0.9649,0.0351	-2279.77
0.8848,0.1152	-2284.35
0.9928,0.0072	-2260.39
0.9243,0.0757	-2292.58
0.9442,0.0558	-2268.21
0.9366,0.0634	-2276.97
0.9597,0.0403	-2276.42
0.8845,0.1155	-2292.52
0.9929,0.0071	-2265.32
0.9153,0.0847	-2270.94
0.9487,0.0513	-2264.90
0.9535,0.0465	-2282.52
0.9518,0.0482	-2282.47
0.8718,0.1282	-2287.12
0.9936,0.0064	-2265.36
0.9188,0.0812	-2270.60
0.9452,0.0548	-2273.82
0.9560,0.0440	-2267.21
0.9606,0.0394	-2273.23
0.8768,0.1232	-2284.86
0.9930,0.0070	-2265.32
0.9246,0.0754	-2285.07
0.9390,0.0610	-2282.35
0.9520,0.0480	-2270.53
0.9602,0.0398	-2266.88
0.8662,0.1338	-2296.81
0.9940,0.0060	-2260.27
0.9118,0.0882	-2280.64
0.9390,0.0610	-2271.41
0.9544,0.0456	-2270.38
0.9614,0.0386	-2266.78
0.8672,0.1328	-2294.91
0.9926,0.0074	-2270.20
0.9189,0.0811	-2287.58
0.9410,0.0590	-2274.03
0.9484,0.0516	-2285.31
0.9542,0.0458	-2276.47
0.8816,0.1184	-2298.61
0.9941,0.0059	-2260.26
0.9200,0.0800	-2282.69
0.9411,0.0589	-2276.80
0.9460,0.0540	-2282.37
0.9550,0.0450	-2276.46
0.8645,0.1355	-2287.58
0.9935,0.0065	-2260.32
0.9339,0.0661	-2274.45
0.9366,0.0634	-2274.28
0.9476,0.0524	-2279.49
0.9501,0.0499	-2273.59
0.8791,0.1209	-2288.68
0.9919,0.0081	-2260.48
0.9177,0.0823	-2280.36
0.9445,0.0555	-2282.36
0.9494,0.0506	-2273.63
0.9465,0.0535	-2279.50
0.8782,0.1218	-2290.70
0.9908,0.0092	-2265.27
0.9108,0.0892	-2294.64
0.9425,0.0575	-2276.75
0.9496,0.0504	-2270.68
0.9437,0.0563	-2271.07
0.8809,0.1191	-2284.60
0.9896,0.0104	-2265.26
0.9209,0.0791	-2287.58
0.9505,0.0495	-2273.58
0.9529,0.0471	-2270.47
0.9448,0.0552	-2285.20
0.8929,0.1071	-2290.25
0.9906,0.0094	-2265.26
0.9269,0.0731	-2285.05
0.9550,0.0450	-2270.35
0.9577,0.0423	-2288.91
0.9541,0.0459	-2273.43
0.9086,0.0914	-2280.82
0.9883,0.0117	-2260.84
0.9330,0.0670	-2271.86
0.9580,0.0420	-2270.18
0.9590,0.0410	-2289.04
0.9605,0.0395	-2270.04
0.9230,0.0770	-2280.12
0.9920,0.0080	-2260.46
0.9473,0.0527	-2273.72
0.9585,0.0415	-2273.29
0.9552,0.0448	-2282.57
0.9609,0.0391	-2263.62
0.9265,0.0735	-2285.05
0.9917,0.0083	-2260.50
0.9376,0.0624	-2276.93
0.9574,0.0426	-2276.43
0.9566,0.0434	-2267.16
0.9624,0.0376	-2276.43
0.9144,0.0856	-2285.25
0.9914,0.0086	-2260.52
0.9484,0.0516	-2270.76
0.9498,0.0502	-2267.72
0.9533,0.0467	-2285.53
0.9632,0.0368	-2273.17
0.9177,0.0823	-2277.94
0.9913,0.0087	-2270.01
0.9578,0.0422	-2273.31
0.9379,0.0621	-2290.50
0.9545,0.0455	-2285.59
0.9665,0.0335	-2269.76
0.9097,0.0903	-2283.07
0.9903,0.0097	-2260.64
0.9653,0.0347	-2286.45
0.9298,0.0702	-2282.45
0.9533,0.0467	-2273.46
0.9641,0.0359	-2269.87
0.8918,0.1082	-2283.94
0.9923,0.0077	-2260.44
0.9627,0.0373	-2279.69
0.9225,0.0775	-2280.14
0.9343,0.0657	-2279.73
0.9695,0.0305	-2280.03
0.8992,0.1008	-2283.55
0.9944,0.0056	-2260.23
0.9685,0.0315	-2273.11
0.9331,0.0669	-2285.03
0.9382,0.0618	-2276.91
0.9692,0.0308	-2266.21
0.8911,0.1089	-2290.29
0.9940,0.0060	-2260.27
0.9694,0.0306	-2276.56
0.9329,0.0671	-2277.14
0.9370,0.0630	-2276.96
0.9694,0.0306	-2266.20
0.9130,0.0870	-2285.28
0.9952,0.0048	-2260.16
0.9739,0.0261	-2269.52
0.9411,0.0589	-2282.34
0.9281,0.0719	-2285.04
0.9688,0.0312	-2273.11
0.9091,0.0909	-2285.39
0.9939,0.0061	-2260.28
0.9789,0.0211	-2265.61
0.9273,0.0727	-2282.50
0.9243,0.0757	-2277.57
0.9716,0.0284	-2266.05
0.9226,0.0774	-2275.18
0.9922,0.0078	-2260.45
0.9814,0.0186	-2265.49
0.9382,0.0618	-2282.35
0.9050,0.0950	-2281.02
0.9690,0.0310	-2273.11
0.9189,0.0811	-2280.30
0.9901,0.0099	-2269.87
0.9806,0.0194	-2261.60
0.9231,0.0769	-2272.66
0.9267,0.0733	-2277.44
0.9701,0.0299	-2269.63
0.9134,0.0866	-2289.99
0.9908,0.0092	-2260.58
0.9809,0.0191	-2269.45
0.9069,0.0931	-2278.63
0.9335,0.0665	-2277.11
0.9727,0.0273	-2265.97
0.9265,0.0735	-2274.92
0.9924,0.0076	-2265.30
0.9800,0.0200	-2261.67
0.8954,0.1046	-2290.19
0.9407,0.0593	-2282.34
0.9699,0.0301	-2266.16
0.9336,0.0664	-2277.11
0.9922,0.0078	-2260.45
0.9779,0.0221	-2261.88
0.8629,0.1371	-2295.04
0.9280,0.0720	-2272.26
0.9675,0.0325	-2269.72
0.9258,0.0742	-2295.16
0.9921,0.0079	-2260.46
0.9833,0.0167	-2265.41
0.8431,0.1569	-2287.42
0.9430,0.0570	-2271.13
0.9661,0.0339	-2269.78
0.9262,0.0738	-2280.00
0.9898,0.0102	-2265.26
0.9812,0.0188	-2265.50
0.8556,0.1444	-2297.08
0.9381,0.0619	-2276.91
0.9679,0.0321	-2273.11
0.9265,0.0735	-2279.99
0.9899,0.0101	-2265.26
0.9851,0.0149	-2265.34
0.8936,0.1064	-2285.97
0.9506,0.0494	-2270.61
0.9686,0.0314	-2266.25
0.9245,0.0755	-2285.07
0.9914,0.0086	-2260.52
0.9861,0.0139	-2273.84
0.8762,0.1238	-2288.82
0.9470,0.0530	-2279.50
0.9672,0.0328	-2269.73
0.9302,0.0698	-2282.44
0.9933,0.0067	-2260.34
0.9884,0.0116	-2260.82
0.8906,0.1094	-2288.21
0.9407,0.0593	-2274.05
0.9676,0.0324	-2269.72
0.9310,0.0690	-2279.83
0.9932,0.0068	-2260.35
0.9883,0.0117	-2260.83
0.8745,0.1255	-2306.37
0.9347,0.0653	-2269.07
0.9623,0.0377	-2269.95
0.9442,0.0558	-2279.53
0.9946,0.0054	-2260.21
0.9883,0.0117	-2265.27
0.9044,0.0956	-2278.81
0.9313,0.0687	-2285.03
0.9658,0.0342	-2269.79
0.9421,0.0579	-2268.40
0.9954,0.0046	-2260.13
0.9894,0.0106	-2265.26
0.9063,0.0937	-2285.48
0.9411,0.0589	-2282.34
0.9691,0.0309	-2276.55
0.9452,0.0548	-2273.82
0.9945,0.0055	-2260.22
0.9873,0.0127	-2269.64
0.9174,0.0826	-2280.37
0.9366,0.0634	-2276.97
0.9660,0.0340	-2266.43
0.9500,0.0500	-2282.43
0.9936,0.0064	-2260.31
0.9893,0.0107	-2265.26
0.9216,0.0784	-2280.18
0.9401,0.0599	-2274.08
0.9688,0.0312	-2269.67
0.9548,0.0452	-2273.41
0.9938,0.0062	-2265.37
0.9880,0.0120	-2260.87
0.9190,0.0810	-2287.58
0.9326,0.0674	-2282.41
0.9665,0.0335	-2273.12
0.9560,0.0440	-2285.68
0.9928,0.0072	-2265.31
0.9900,0.0100	-2260.66
0.9254,0.0746	-2292.62
0.9284,0.0716	-2272.23
0.9619,0.0381	-2276.43
0.9471,0.0529	-2273.73
0.9929,0.0071	-2265.32
0.9872,0.0128	-2260.94
0.9381,0.0619	-2279.63
0.9345,0.0655	-2277.06
0.9692,0.0308	-2269.66
0.9328,0.0672	-2277.14
0.9917,0.0083	-2260.50
0.9825,0.0175	-2265.44
0.9489,0.0511	-2279.49
0.9335,0.0665	-2279.75
0.9724,0.0276	-2269.56
0.9354,0.0646	-2279.70
0.9918,0.0082	-2260.49
0.9816,0.0184	-2269.46
0.9569,0.0431	-2270.24
0.9359,0.0641	-2271.64
0.9748,0.0252	-2276.81
0.9385,0.0615	-2279.63
0.9910,0.0090	-2260.57
0.9838,0.0162	-2261.28
0.9548,0.0452	-2285.61
0.9227,0.0773	-2285.09
0.9707,0.0293	-2273.11
0.9403,0.0597	-2276.83
0.9916,0.0084	-2260.51
0.9778,0.0222	-2277.03
0.9421,0.0579	-2285.13
0.9274,0.0726	-2279.95
0.9702,0.0298	-2266.14
0.9453,0.0547	-2279.51
0.9901,0.0099	-2265.26
0.9767,0.0233	-2280.67
0.9508,0.0492	-2270.60
0.9250,0.0750	-2280.04
0.9635,0.0365	-2263.35
0.9527,0.0473	-2276.49
0.9898,0.0102	-2265.26
0.9811,0.0189	-2261.55
0.9579,0.0421	-2267.06
0.9151,0.0849	-2287.61
0.9580,0.0420	-2270.18
0.9582,0.0418	-2276.43
0.9892,0.0108	-2265.26
0.9734,0.0266	-2262.33
0.9472,0.0528	-2285.27
0.9296,0.0704	-2282.45
0.9663,0.0337	-2266.41
0.9558,0.0442	-2276.45
0.9892,0.0108	-2265.26
0.9737,0.0263	-2269.52
0.9406,0.0594	-2282.34
0.9263,0.0737	-2279.99
0.9709,0.0291	-2262.59
0.9431,0.0569	-2282.35
0.9875,0.0125	-2265.28
0.9732,0.0268	-2262.35
0.9464,0.0536	-2276.63
0.9225,0.0775	-2275.19
0.9691,0.0309	-2269.66
0.9459,0.0541	-2270.93
0.9875,0.0125	-2265.28
0.9786,0.0214	-2280.92
0.9348,0.0652	-2285.04
0.9012,0.0988	-2290.08
0.9707,0.0293	-2273.11
0.9529,0.0471	-2267.47
0.9866,0.0134	-2265.30
0.9852,0.0148	-2265.34
0.9332,0.0668	-2274.48
0.9029,0.0971	-2290.06
0.9662,0.0338	-2266.42
0.9540,0.0460	-2276.47
0.9851,0.0149	-2265.34
0.9849,0.0151	-2273.70
0.9325,0.0675	-2274.53
0.9192,0.0808	-2282.72
0.9568,0.0432	-2273.34
0.9459,0.0541	-2270.92
0.9855,0.0145	-2265.33
0.9839,0.0161	-2261.27
0.9371,0.0629	-2276.96
0.9283,0.0717	-2290.16
0.9550,0.0450	-2270.34
0.9454,0.0546	-2265.26
0.9821,0.0179	-2265.46
0.9857,0.0143	-2269.56
0.9323,0.0677	-2269.29
0.9372,0.0628	-2266.14
0.9633,0.0367	-2279.71
0.9352,0.0648	-2285.04
0.9804,0.0196	-2269.45
0.9835,0.0165	-2261.31
0.9220,0.0780	-2294.99
0.9469,0.0531	-2273.74
0.9646,0.0354	-2276.45
0.9290,0.0710	-2285.04
0.9753,0.0247	-2269.49
0.9847,0.0153	-2265.36
0.9277,0.0723	-2279.94
0.9586,0.0414	-2273.29
0.9562,0.0438	-2270.28
0.9384,0.0616	-2271.46
0.9775,0.0225	-2269.46
0.9841,0.0159	-2265.38
0.9370,0.0630	-2276.96
0.9638,0.0362	-2269.88
0.9517,0.0483	-2282.47
0.9372,0.0628	-2276.95
0.9763,0.0237	-2269.47
0.9833,0.0167	-2261.34
0.9401,0.0599	-2274.09
0.9673,0.0327	-2262.95
0.9561,0.0439	-2270.28
0.9452,0.0548	-2270.97
0.9767,0.0233	-2265.73
0.9795,0.0205	-2261.71
0.9558,0.0442	-2279.52
0.9603,0.0397	-2276.42
0.9425,0.0575	-2279.55
0.9460,0.0540	-2279.51
0.9673,0.0327	-2276.50
0.9780,0.0220	-2269.45
0.9495,0.0505	-2285.36
0.9623,0.0377	-2263.48
0.9531,0.0469	-2270.46
0.9387,0.0613	-2265.97
0.9717,0.0283	-2269.58
0.9741,0.0259	-2269.52
0.9582,0.0418	-2273.30
0.9490,0.0510	-2285.33
0.9607,0.0393	-2273.23
0.9463,0.0537	-2276.63
0.9741,0.0259	-2273.14
0.9746,0.0254	-2262.21
0.9603,0.0397	-2276.42
0.9509,0.0491	-2279.49
0.9617,0.0383	-2279.65
0.9403,0.0597	-2274.08
0.9771,0.0229	-2269.46
0.9748,0.0252	-2265.85
0.9423,0.0577	-2276.76
0.9570,0.0430	-2285.74
0.9677,0.0323	-2262.92
0.9281,0.0719	-2279.93
0.9689,0.0311	-2276.55
0.9712,0.0288	-2269.59
0.9336,0.0664	-2271.82
0.9497,0.0503	-2282.43
0.9684,0.0316	-2262.84
0.9428,0.0572	-2279.54
0.9652,0.0348	-2269.82
0.9697,0.0303	-2266.17
0.9498,0.0502	-2282.43
0.9566,0.0434	-2273.35
0.9713,0.0287	-2273.11
0.9417,0.0583	-2276.78
0.9698,0.0302	-2273.11
0.9706,0.0294	-2266.11
0.9476,0.0524	-2265.02
0.9587,0.0413	-2266.99
0.9623,0.0377	-2279.67
0.9425,0.0575	-2271.16
0.9729,0.0271	-2265.96
0.9724,0.0276	-2269.56
0.9449,0.0551	-2273.83
0.9580,0.0420	-2267.05
0.9714,0.0286	-2273.11
0.9379,0.0621	-2274.21
0.9754,0.0246	-2265.80
0.9706,0.0294	-2266.12
0.9409,0.0591	-2282.34
0.9562,0.0438	-2276.44
0.9685,0.0315	-2269.68
0.9463,0.0537	-2270.89
0.9722,0.0278	-2269.56
0.9688,0.0312	-2266.24
0.9506,0.0494	-2273.57
0.9592,0.0408	-2276.43
0.9674,0.0326	-2273.12
0.9398,0.0602	-2271.35
0.9656,0.0344	-2263.13
0.9679,0.0321	-2276.52
0.9431,0.0569	-2279.54
0.9581,0.0419	-2267.04
0.9656,0.0344	-2269.80
0.9520,0.0480	-2279.49
0.9704,0.0296	-2273.11
0.9596,0.0404	-2273.26
0.9412,0.0588	-2271.26
0.9611,0.0389	-2273.22
0.9765,0.0235	-2265.74
0.9526,0.0474	-2267.49
0.9618,0.0382	-2269.98
0.9668,0.0332	-2266.38
0.9383,0.0617	-2271.46
0.9708,0.0292	-2276.61
0.9772,0.0228	-2261.95
0.9472,0.0528	-2285.27
0.9627,0.0373	-2282.93
0.9639,0.0361	-2276.45
0.9372,0.0628	-2282.36
0.9686,0.0314	-2276.54
0.9810,0.0190	-2265.50
0.9542,0.0458	-2276.47
0.9676,0.0324	-2279.91
0.9582,0.0418	-2267.03
0.9327,0.0673	-2271.89
0.9731,0.0269	-2273.13
0.9756,0.0244	-2269.48
0.9615,0.0385	-2279.64
0.9653,0.0347	-2273.14
0.9606,0.0394	-2270.04
0.9320,0.0680	-2279.80
0.9808,0.0192	-2265.52
0.9738,0.0262	-2269.52
0.9614,0.0386	-2270.00
0.9584,0.0416	-2276.43
0.9568,0.0432	-2276.44
0.9196,0.0804	-2290.02
0.9788,0.0212	-2261.79
0.9728,0.0272	-2265.97
0.9631,0.0369	-2266.65
0.9536,0.0464	-2273.45
0.9602,0.0398	-2270.06
0.9091,0.0909	-2285.39
0.9807,0.0193	-2261.59
0.9762,0.0238	-2262.05
0.9676,0.0324	-2269.72
0.9561,0.0439	-2273.36
0.9605,0.0395	-2273.23
0.9140,0.0860	-2278.17
0.9809,0.0191	-2261.57
0.9796,0.0204	-2269.45
0.9620,0.0380	-2276.43
0.9560,0.0440	-2267.21
0.9635,0.0365	-2273.17
0.9019,0.0981	-2281.20
0.9806,0.0194	-2269.45
0.9822,0.0178	-2265.45
0.9629,0.0371	-2269.92
0.9683,0.0317	-2266.27
0.9654,0.0346	-2273.14
0.9200,0.0800	-2282.69
0.9782,0.0218	-2265.65
0.9777,0.0223	-2269.46
0.9670,0.0330	-2266.37
0.9730,0.0270	-2273.13
0.9728,0.0272	-2269.55
0.9390,0.0610	-2282.35
0.9819,0.0181	-2261.47
0.9714,0.0286	-2266.06
0.9623,0.0377	-2266.71
0.9793,0.0207	-2277.16
0.9646,0.0354	-2263.23
0.9489,0.0511	-2273.65
0.9802,0.0198	-2265.54
0.9622,0.0378	-2273.19
0.9627,0.0373	-2276.43
0.9780,0.0220	-2269.45
0.9708,0.0292	-2276.61
0.9402,0.0598	-2279.59
0.9774,0.0226	-2269.46
0.9601,0.0399	-2266.89
0.9584,0.0416	-2267.02
0.9835,0.0165	-2277.66
0.9715,0.0285	-2283.70
0.9549,0.0451	-2267.30
0.9794,0.0206	-2277.17
0.9567,0.0433	-2276.44
0.9512,0.0488	-2273.55
0.9804,0.0196	-2265.54
0.9706,0.0294	-2276.60
0.9633,0.0367	-2276.44
0.9790,0.0210	-2265.61
0.9584,0.0416	-2279.56
0.9667,0.0333	-2266.39
0.9812,0.0188	-2273.40
0.9731,0.0269	-2269.54
0.9657,0.0343	-2266.46
0.9803,0.0197	-2261.63
0.9653,0.0347	-2266.49
0.9572,0.0428	-2273.33
0.9795,0.0205	-2261.71
0.9725,0.0275	-2262.42
0.9614,0.0386	-2270.00
0.9810,0.0190	-2269.45
0.9651,0.0349	-2273.14
0.9556,0.0444	-2291.80
0.9832,0.0168	-2265.41
0.9783,0.0217	-2269.45
0.9600,0.0400	-2273.25
0.9822,0.0178	-2269.46
0.9677,0.0323	-2269.71
0.9594,0.0406	-2279.59
0.9814,0.0186	-2261.52
0.9743,0.0257	-2280.42
0.9623,0.0377	-2273.19
0.9828,0.0172	-2273.52
0.9696,0.0304	-2276.57
0.9617,0.0383	-2276.43
0.9803,0.0197	-2261.64
0.9800,0.0200	-2265.56
0.9690,0.0310	-2273.11
0.9809,0.0191	-2261.57
0.9698,0.0302	-2269.64
0.9568,0.0432	-2282.63
0.9836,0.0164	-2265.40
0.9850,0.0150	-2265.35
0.9732,0.0268	-2276.72
0.9789,0.0211	-2265.61
0.9702,0.0298	-2283.56
0.9609,0.0391	-2273.22
0.9838,0.0162	-2265.39
0.9872,0.0128	-2269.63
0.9587,0.0413	-2270.14
0.9777,0.0223	-2265.67
0.9716,0.0284	-2269.58
0.9679,0.0321	-2269.71
0.9871,0.0129	-2265.29
0.9841,0.0159	-2265.38
0.9496,0.0504	-2273.61
0.9794,0.0206	-2265.58
0.9745,0.0255	-2265.86
0.9721,0.0279	-2262.46
0.9874,0.0126	-2260.92
0.9804,0.0196	-2269.45
0.9529,0.0471	-2267.47
0.9738,0.0262	-2269.52
0.9696,0.0304	-2262.72
0.9756,0.0244	-2262.11
0.9866,0.0134	-2265.30
0.9810,0.0190	-2265.51
0.9507,0.0493	-2276.53
0.9808,0.0192	-2273.38
0.9694,0.0306	-2283.48
0.9744,0.0256	-2262.23
0.9866,0.0134	-2269.60
0.9786,0.0214	-2273.27
0.9400,0.0600	-2279.59
0.9790,0.0210	-2261.76
0.9682,0.0318	-2262.86
0.9766,0.0234	-2265.74
0.9841,0.0159	-2265.38
0.9745,0.0255	-2280.44
0.9422,0.0578	-2279.56
0.9760,0.0240	-2265.77
0.9774,0.0226	-2265.69
0.9720,0.0280	-2266.02
0.9859,0.0141	-2261.08
0.9709,0.0291	-2266.10
0.9489,0.0511	-2279.49
0.9666,0.0334	-2269.76
0.9828,0.0172	-2261.38
0.9752,0.0248	-2269.49
0.9839,0.0161	-2265.39
0.9742,0.0258	-2273.14
0.9471,0.0529	-2285.27
0.9749,0.0251	-2265.84
0.9812,0.0188	-2269.45
0.9726,0.0274	-2269.55
0.9859,0.0141	-2265.32
0.9727,0.0273	-2265.97
0.9431,0.0569	-2276.73
0.9752,0.0248	-2262.15
0.9790,0.0210	-2269.45
0.9758,0.0242	-2265.78
0.9826,0.0174	-2273.51
0.9715,0.0285	-2262.53
0.9345,0.0655	-2279.72
0.9782,0.0218	-2265.65
0.9770,0.0230	-2261.96
0.9728,0.0272	-2265.97
0.9844,0.0156	-2269.51
0.9628,0.0372	-2269.93
0.9472,0.0528	-2279.50
0.9796,0.0204	-2265.58
0.9752,0.0248	-2269.49
0.9690,0.0310	-2273.11
0.9827,0.0173	-2269.47
0.9552,0.0448	-2270.34
0.9375,0.0625	-2279.65
0.9827,0.0173	-2269.47
0.9739,0.0261	-2280.38
0.9691,0.0309	-2262.77
0.9858,0.0142	-2261.08
0.9595,0.0405	-2270.10
0.9364,0.0636	-2276.99
0.9824,0.0176	-2265.45
0.9708,0.0292	-2269.61
0.9704,0.0296	-2269.62
0.9874,0.0126	-2269.64
0.9680,0.0320	-2273.11
0.9373,0.0627	-2279.65
0.9867,0.0133	-2265.30
0.9631,0.0369	-2279.70
0.9703,0.0297	-2262.65
0.9839,0.0161	-2261.27
0.9678,0.0322	-2279.92
0.9452,0.0548	-2276.67
0.9858,0.0142	-2265.32
0.9597,0.0403	-2276.42
0.9707,0.0293	-2269.61
0.9848,0.0152	-2261.18
0.9660,0.0340	-2263.09
0.9400,0.0600	-2271.34
0.9799,0.0201	-2265.56
0.9594,0.0406	-2266.94
0.9634,0.0366	-2266.63
0.9862,0.0138	-2261.04
0.9687,0.0313	-2262.82
0.9330,0.0670	-2287.67
0.9830,0.0170	-2261.36
