#isoforms=['ENSG00000101294.SE.1.A.up_ENSG00000101294.SE.1.A.SE1_ENSG00000101294.SE.1.A.dn','ENSG00000101294.SE.1.B.up_ENSG00000101294.SE.1.B.dn']	exon_lens=('ENSG00000101294.SE.1.A.up',99),('ENSG00000101294.SE.1.A.SE1',376),('ENSG00000101294.SE.1.A.dn',89),('ENSG00000101294.SE.1.B.up',99),('ENSG00000101294.SE.1.B.dn',89)	iters=5000	burn_in=500	lag=10	percent_accept=97.33	proposal_type=drift	counts=(0,0):1189,(1,0):237	assigned_counts=0:237	chrom=chr20	strand=+	mRNA_starts=31527484,31527484	mRNA_ends=31545035,31545035
sampled_psi	log_score
0.9453,0.0547	-1458.27
0.9075,0.0925	-1460.24
0.9624,0.0376	-1457.43
0.9689,0.0311	-1457.11
0.8981,0.1019	-1460.75
0.9301,0.0699	-1459.05
0.9498,0.0502	-1458.05
0.9266,0.0734	-1459.23
0.9581,0.0419	-1457.64
0.9733,0.0267	-1456.90
0.9214,0.0786	-1459.50
0.9226,0.0774	-1459.44
0.9341,0.0659	-1458.84
0.9230,0.0770	-1459.42
0.9622,0.0378	-1457.44
0.9745,0.0255	-1456.84
0.9193,0.0807	-1459.61
0.9169,0.0831	-1459.74
0.9467,0.0533	-1458.21
0.9123,0.0877	-1459.98
0.9592,0.0408	-1457.58
0.9756,0.0244	-1456.80
0.9290,0.0710	-1459.11
0.9066,0.0934	-1460.29
0.9413,0.0587	-1458.48
0.9061,0.0939	-1460.32
0.9590,0.0410	-1457.59
0.9813,0.0187	-1456.52
0.9407,0.0593	-1458.51
0.9170,0.0830	-1459.74
0.9429,0.0571	-1458.39
0.9005,0.0995	-1460.63
0.9584,0.0416	-1457.62
0.9849,0.0151	-1456.36
0.9446,0.0554	-1458.31
0.9203,0.0797	-1459.56
0.9340,0.0660	-1458.85
0.9108,0.0892	-1460.07
0.9577,0.0423	-1457.66
0.9846,0.0154	-1456.37
0.9448,0.0552	-1458.30
0.9252,0.0748	-1459.30
0.9407,0.0593	-1458.51
0.9055,0.0945	-1460.35
0.9525,0.0475	-1457.91
0.9846,0.0154	-1456.37
0.9514,0.0486	-1457.97
0.9307,0.0693	-1459.02
0.9396,0.0604	-1458.56
0.9065,0.0935	-1460.30
0.9410,0.0590	-1458.49
0.9780,0.0220	-1456.68
0.9544,0.0456	-1457.82
0.9400,0.0600	-1458.54
0.9376,0.0624	-1458.66
0.9049,0.0951	-1460.38
0.9513,0.0487	-1457.97
0.9770,0.0230	-1456.73
0.9451,0.0549	-1458.29
0.9458,0.0542	-1458.25
0.9345,0.0655	-1458.82
0.9082,0.0918	-1460.20
0.9530,0.0470	-1457.89
0.9780,0.0220	-1456.68
0.9451,0.0549	-1458.28
0.9442,0.0558	-1458.33
0.9310,0.0690	-1459.00
0.9128,0.0872	-1459.95
0.9526,0.0474	-1457.91
0.9811,0.0189	-1456.54
0.9412,0.0588	-1458.48
0.9608,0.0392	-1457.50
0.9223,0.0777	-1459.45
0.9281,0.0719	-1459.15
0.9386,0.0614	-1458.61
0.9815,0.0185	-1456.52
0.9511,0.0489	-1457.98
0.9549,0.0451	-1457.79
0.9210,0.0790	-1459.52
0.9414,0.0586	-1458.47
0.9542,0.0458	-1457.83
0.9807,0.0193	-1456.55
0.9564,0.0436	-1457.72
0.9538,0.0462	-1457.85
0.9410,0.0590	-1458.49
0.9343,0.0657	-1458.83
0.9495,0.0505	-1458.06
0.9801,0.0199	-1456.58
0.9598,0.0402	-1457.55
0.9450,0.0550	-1458.29
0.9460,0.0540	-1458.24
0.9233,0.0767	-1459.40
0.9486,0.0514	-1458.11
0.9814,0.0186	-1456.52
0.9602,0.0398	-1457.53
0.9439,0.0561	-1458.34
0.9415,0.0585	-1458.47
0.9356,0.0644	-1458.77
0.9439,0.0561	-1458.34
0.9804,0.0196	-1456.57
0.9628,0.0372	-1457.41
0.9337,0.0663	-1458.86
0.9408,0.0592	-1458.50
0.9466,0.0534	-1458.21
0.9538,0.0462	-1457.85
0.9781,0.0219	-1456.68
0.9638,0.0362	-1457.36
0.9295,0.0705	-1459.08
0.9400,0.0600	-1458.54
0.9495,0.0505	-1458.06
0.9618,0.0382	-1457.46
0.9809,0.0191	-1456.54
0.9584,0.0416	-1457.62
0.9351,0.0649	-1458.79
0.9434,0.0566	-1458.37
0.9523,0.0477	-1457.92
0.9713,0.0287	-1457.00
0.9774,0.0226	-1456.71
0.9510,0.0490	-1457.99
0.9366,0.0634	-1458.71
0.9457,0.0543	-1458.25
0.9480,0.0520	-1458.14
0.9594,0.0406	-1457.57
0.9843,0.0157	-1456.39
0.9394,0.0606	-1458.57
0.9456,0.0544	-1458.26
0.9412,0.0588	-1458.48
0.9555,0.0445	-1457.77
0.9544,0.0456	-1457.82
0.9831,0.0169	-1456.44
0.9522,0.0478	-1457.93
0.9541,0.0459	-1457.84
0.9208,0.0792	-1459.53
0.9577,0.0423	-1457.66
0.9587,0.0413	-1457.61
0.9799,0.0201	-1456.59
0.9515,0.0485	-1457.96
0.9609,0.0391	-1457.50
0.9234,0.0766	-1459.40
0.9603,0.0397	-1457.53
0.9401,0.0599	-1458.54
0.9791,0.0209	-1456.63
0.9517,0.0483	-1457.96
0.9628,0.0372	-1457.41
0.9333,0.0667	-1458.88
0.9619,0.0381	-1457.45
0.9348,0.0652	-1458.80
0.9790,0.0210	-1456.63
0.9590,0.0410	-1457.60
0.9618,0.0382	-1457.46
0.9340,0.0660	-1458.85
0.9632,0.0368	-1457.39
0.9259,0.0741	-1459.26
0.9814,0.0186	-1456.52
0.9569,0.0431	-1457.70
0.9649,0.0351	-1457.31
0.9285,0.0715	-1459.13
0.9622,0.0378	-1457.44
0.9396,0.0604	-1458.56
0.9819,0.0181	-1456.50
0.9539,0.0461	-1457.85
0.9684,0.0316	-1457.14
0.9240,0.0760	-1459.36
0.9654,0.0346	-1457.28
0.9373,0.0627	-1458.68
0.9837,0.0163	-1456.42
0.9494,0.0506	-1458.07
0.9678,0.0322	-1457.17
0.9192,0.0808	-1459.62
0.9648,0.0352	-1457.31
0.9216,0.0784	-1459.49
0.9840,0.0160	-1456.40
0.9461,0.0539	-1458.23
0.9671,0.0329	-1457.20
0.9274,0.0726	-1459.19
0.9701,0.0299	-1457.06
0.9167,0.0833	-1459.75
0.9857,0.0143	-1456.32
0.9535,0.0465	-1457.86
0.9713,0.0287	-1457.00
0.9321,0.0679	-1458.95
0.9663,0.0337	-1457.24
0.9271,0.0729	-1459.20
0.9899,0.0101	-1456.13
0.9509,0.0491	-1457.99
0.9739,0.0261	-1456.87
0.9266,0.0734	-1459.23
0.9679,0.0321	-1457.16
0.9378,0.0622	-1458.65
0.9928,0.0072	-1455.99
0.9551,0.0449	-1457.78
0.9713,0.0287	-1457.00
0.9340,0.0660	-1458.85
0.9679,0.0321	-1457.16
0.9322,0.0678	-1458.94
0.9941,0.0059	-1455.93
0.9583,0.0417	-1457.63
0.9743,0.0257	-1456.86
0.9190,0.0810	-1459.63
0.9604,0.0396	-1457.52
0.9395,0.0605	-1458.57
0.9934,0.0066	-1455.97
0.9406,0.0594	-1458.51
0.9643,0.0357	-1457.34
0.9087,0.0913	-1460.18
0.9621,0.0379	-1457.44
0.9476,0.0524	-1458.16
0.9921,0.0079	-1456.03
0.9458,0.0542	-1458.25
0.9632,0.0368	-1457.39
0.9184,0.0816	-1459.66
0.9595,0.0405	-1457.57
0.9366,0.0634	-1458.71
0.9916,0.0084	-1456.05
0.9469,0.0531	-1458.20
0.9531,0.0469	-1457.88
0.9155,0.0845	-1459.81
0.9530,0.0470	-1457.89
0.9339,0.0661	-1458.85
0.9920,0.0080	-1456.03
0.9470,0.0530	-1458.19
0.9494,0.0506	-1458.07
0.9273,0.0727	-1459.19
0.9537,0.0463	-1457.85
0.9215,0.0785	-1459.49
0.9923,0.0077	-1456.01
0.9379,0.0621	-1458.65
0.9581,0.0419	-1457.64
0.9423,0.0577	-1458.42
0.9636,0.0364	-1457.37
0.9256,0.0744	-1459.28
0.9925,0.0075	-1456.00
0.9366,0.0634	-1458.71
0.9594,0.0406	-1457.57
0.9474,0.0526	-1458.17
0.9536,0.0464	-1457.86
0.9243,0.0757	-1459.35
0.9940,0.0060	-1455.94
0.9284,0.0716	-1459.13
0.9631,0.0369	-1457.39
0.9530,0.0470	-1457.89
0.9615,0.0385	-1457.47
0.9360,0.0640	-1458.74
0.9940,0.0060	-1455.94
0.9419,0.0581	-1458.45
0.9594,0.0406	-1457.57
0.9444,0.0556	-1458.32
0.9559,0.0441	-1457.75
0.9193,0.0807	-1459.61
0.9937,0.0063	-1455.95
0.9428,0.0572	-1458.40
0.9645,0.0355	-1457.33
0.9542,0.0458	-1457.83
0.9551,0.0449	-1457.79
0.9426,0.0574	-1458.41
0.9929,0.0071	-1455.99
0.9507,0.0493	-1458.00
0.9563,0.0437	-1457.72
0.9548,0.0452	-1457.80
0.9596,0.0404	-1457.57
0.9426,0.0574	-1458.41
0.9931,0.0069	-1455.98
0.9471,0.0529	-1458.18
0.9580,0.0420	-1457.64
0.9490,0.0510	-1458.09
0.9690,0.0310	-1457.11
0.9415,0.0585	-1458.47
0.9935,0.0065	-1455.96
0.9448,0.0552	-1458.30
0.9684,0.0316	-1457.14
0.9554,0.0446	-1457.77
0.9598,0.0402	-1457.55
0.9505,0.0495	-1458.02
0.9928,0.0072	-1455.99
0.9412,0.0588	-1458.48
0.9729,0.0271	-1456.92
0.9529,0.0471	-1457.89
0.9554,0.0446	-1457.77
0.9523,0.0477	-1457.92
0.9928,0.0072	-1455.99
0.9410,0.0590	-1458.49
0.9709,0.0291	-1457.02
0.9552,0.0448	-1457.78
0.9616,0.0384	-1457.47
0.9556,0.0444	-1457.76
0.9918,0.0082	-1456.04
0.9319,0.0681	-1458.95
0.9682,0.0318	-1457.15
0.9536,0.0464	-1457.86
0.9590,0.0410	-1457.59
0.9572,0.0428	-1457.68
0.9914,0.0086	-1456.06
0.9323,0.0677	-1458.93
0.9626,0.0374	-1457.42
0.9628,0.0372	-1457.41
0.9574,0.0426	-1457.67
0.9527,0.0473	-1457.90
0.9901,0.0099	-1456.11
0.9454,0.0546	-1458.27
0.9675,0.0325	-1457.18
0.9665,0.0335	-1457.23
0.9614,0.0386	-1457.48
0.9470,0.0530	-1458.19
0.9919,0.0081	-1456.03
0.9486,0.0514	-1458.11
0.9692,0.0308	-1457.10
0.9669,0.0331	-1457.21
0.9506,0.0494	-1458.01
0.9556,0.0444	-1457.76
0.9924,0.0076	-1456.01
0.9508,0.0492	-1458.00
0.9672,0.0328	-1457.20
0.9605,0.0395	-1457.52
0.9516,0.0484	-1457.96
0.9542,0.0458	-1457.83
0.9929,0.0071	-1455.99
0.9425,0.0575	-1458.41
0.9650,0.0350	-1457.30
0.9668,0.0332	-1457.22
0.9423,0.0577	-1458.42
0.9673,0.0327	-1457.19
0.9917,0.0083	-1456.04
0.9315,0.0685	-1458.98
0.9520,0.0480	-1457.94
0.9666,0.0334	-1457.22
0.9328,0.0672	-1458.91
0.9626,0.0374	-1457.42
0.9896,0.0104	-1456.14
0.9291,0.0709	-1459.10
0.9538,0.0462	-1457.85
0.9704,0.0296	-1457.04
0.9260,0.0740	-1459.26
0.9616,0.0384	-1457.47
0.9872,0.0128	-1456.25
0.9233,0.0767	-1459.40
0.9506,0.0494	-1458.01
0.9599,0.0401	-1457.55
0.9364,0.0636	-1458.72
0.9586,0.0414	-1457.61
0.9864,0.0136	-1456.29
0.9287,0.0713	-1459.12
0.9595,0.0405	-1457.57
0.9629,0.0371	-1457.41
0.9392,0.0608	-1458.58
0.9679,0.0321	-1457.16
0.9853,0.0147	-1456.34
0.9302,0.0698	-1459.04
0.9661,0.0339	-1457.25
0.9645,0.0355	-1457.33
0.9295,0.0705	-1459.08
0.9629,0.0371	-1457.41
0.9850,0.0150	-1456.35
0.9390,0.0610	-1458.59
0.9683,0.0317	-1457.14
0.9569,0.0431	-1457.70
0.9188,0.0812	-1459.64
0.9700,0.0300	-1457.06
0.9808,0.0192	-1456.55
0.9322,0.0678	-1458.94
0.9716,0.0284	-1456.99
0.9578,0.0422	-1457.65
0.9360,0.0640	-1458.75
0.9747,0.0253	-1456.84
0.9789,0.0211	-1456.64
0.9523,0.0477	-1457.93
0.9691,0.0309	-1457.11
0.9599,0.0401	-1457.55
0.9262,0.0738	-1459.25
0.9720,0.0280	-1456.97
0.9796,0.0204	-1456.60
0.9586,0.0414	-1457.61
0.9649,0.0351	-1457.31
0.9623,0.0377	-1457.43
0.9328,0.0672	-1458.91
0.9712,0.0288	-1457.00
0.9813,0.0187	-1456.52
0.9543,0.0457	-1457.83
0.9591,0.0409	-1457.59
0.9651,0.0349	-1457.30
0.9388,0.0612	-1458.60
0.9784,0.0216	-1456.66
0.9829,0.0171	-1456.45
0.9350,0.0650	-1458.80
0.9570,0.0430	-1457.69
0.9701,0.0299	-1457.06
0.9460,0.0540	-1458.24
0.9770,0.0230	-1456.73
0.9794,0.0206	-1456.61
0.9216,0.0784	-1459.49
0.9581,0.0419	-1457.64
0.9688,0.0312	-1457.12
0.9483,0.0517	-1458.12
0.9777,0.0223	-1456.70
0.9818,0.0182	-1456.50
0.9285,0.0715	-1459.13
0.9533,0.0467	-1457.87
0.9658,0.0342	-1457.26
0.9387,0.0613	-1458.61
0.9744,0.0256	-1456.85
0.9798,0.0202	-1456.60
0.9301,0.0699	-1459.05
0.9572,0.0428	-1457.68
0.9703,0.0297	-1457.05
0.9440,0.0560	-1458.34
0.9716,0.0284	-1456.98
0.9778,0.0222	-1456.69
0.9306,0.0694	-1459.02
0.9576,0.0424	-1457.66
0.9769,0.0231	-1456.73
0.9428,0.0572	-1458.40
0.9753,0.0247	-1456.81
0.9760,0.0240	-1456.78
0.9303,0.0697	-1459.04
0.9632,0.0368	-1457.39
0.9812,0.0188	-1456.53
0.9452,0.0548	-1458.28
0.9778,0.0222	-1456.69
0.9770,0.0230	-1456.73
0.9110,0.0890	-1460.06
0.9663,0.0337	-1457.24
0.9784,0.0216	-1456.66
0.9437,0.0563	-1458.35
0.9798,0.0202	-1456.60
0.9745,0.0255	-1456.85
0.8951,0.1049	-1460.92
0.9587,0.0413	-1457.61
0.9748,0.0252	-1456.83
0.9501,0.0499	-1458.03
0.9768,0.0232	-1456.74
0.9731,0.0269	-1456.91
0.9146,0.0854	-1459.86
0.9656,0.0344	-1457.27
0.9705,0.0295	-1457.04
0.9426,0.0574	-1458.41
0.9774,0.0226	-1456.71
0.9748,0.0252	-1456.83
0.9111,0.0889	-1460.05
0.9587,0.0413	-1457.61
0.9745,0.0255	-1456.85
0.9309,0.0691	-1459.01
0.9752,0.0248	-1456.81
0.9814,0.0186	-1456.52
0.9013,0.0987	-1460.58
0.9674,0.0326	-1457.19
0.9704,0.0296	-1457.04
0.9221,0.0779	-1459.46
0.9790,0.0210	-1456.63
0.9832,0.0168	-1456.44
0.9245,0.0755	-1459.34
0.9661,0.0339	-1457.25
0.9693,0.0307	-1457.09
0.9164,0.0836	-1459.77
0.9765,0.0235	-1456.75
0.9829,0.0171	-1456.45
0.9216,0.0784	-1459.49
0.9651,0.0349	-1457.30
0.9660,0.0340	-1457.25
0.9265,0.0735	-1459.23
0.9778,0.0222	-1456.69
0.9741,0.0259	-1456.86
0.9302,0.0698	-1459.04
0.9679,0.0321	-1457.16
0.9686,0.0314	-1457.13
0.9214,0.0786	-1459.50
0.9784,0.0216	-1456.66
0.9761,0.0239	-1456.77
0.9330,0.0670	-1458.90
0.9599,0.0401	-1457.55
0.9737,0.0263	-1456.88
0.9329,0.0671	-1458.90
0.9815,0.0185	-1456.52
0.9754,0.0246	-1456.80
0.9403,0.0597	-1458.52
0.9559,0.0441	-1457.75
0.9711,0.0289	-1457.01
0.9477,0.0523	-1458.15
0.9843,0.0157	-1456.38
0.9783,0.0217	-1456.67
0.9437,0.0563	-1458.36
0.9528,0.0472	-1457.90
0.9626,0.0374	-1457.42
0.9495,0.0505	-1458.06
0.9825,0.0175	-1456.47
0.9808,0.0192	-1456.55
0.9609,0.0391	-1457.50
0.9485,0.0515	-1458.11
0.9550,0.0450	-1457.79
0.9448,0.0552	-1458.30
0.9834,0.0166	-1456.43
0.9844,0.0156	-1456.38
0.9638,0.0362	-1457.36
0.9529,0.0471	-1457.90
0.9593,0.0407	-1457.58
0.9469,0.0531	-1458.20
0.9828,0.0172	-1456.46
0.9861,0.0139	-1456.30
0.9657,0.0343	-1457.27
0.9435,0.0565	-1458.37
0.9723,0.0277	-1456.95
0.9400,0.0600	-1458.54
0.9870,0.0130	-1456.26
0.9889,0.0111	-1456.17
0.9721,0.0279	-1456.96
0.9449,0.0551	-1458.30
0.9740,0.0260	-1456.87
0.9529,0.0471	-1457.90
0.9903,0.0097	-1456.11
0.9888,0.0112	-1456.18
0.9697,0.0303	-1457.07
0.9569,0.0431	-1457.70
0.9644,0.0356	-1457.33
0.9472,0.0528	-1458.18
0.9875,0.0125	-1456.24
0.9867,0.0133	-1456.27
0.9720,0.0280	-1456.96
0.9453,0.0547	-1458.28
0.9669,0.0331	-1457.21
0.9408,0.0592	-1458.50
0.9898,0.0102	-1456.13
0.9836,0.0164	-1456.42
0.9683,0.0317	-1457.14
0.9474,0.0526	-1458.17
0.9699,0.0301	-1457.07
0.9430,0.0570	-1458.39
0.9905,0.0095	-1456.10
0.9845,0.0155	-1456.38
0.9768,0.0232	-1456.74
0.9444,0.0556	-1458.32
0.9678,0.0322	-1457.17
0.9302,0.0698	-1459.04
0.9891,0.0109	-1456.16
0.9843,0.0157	-1456.39
0.9743,0.0257	-1456.86
0.9494,0.0506	-1458.07
0.9725,0.0275	-1456.94
0.9380,0.0620	-1458.64
0.9890,0.0110	-1456.17
0.9830,0.0170	-1456.44
0.9780,0.0220	-1456.68
0.9549,0.0451	-1457.80
0.9763,0.0237	-1456.76
0.9321,0.0679	-1458.95
0.9890,0.0110	-1456.17
0.9828,0.0172	-1456.46
0.9812,0.0188	-1456.53
0.9507,0.0493	-1458.01
0.9779,0.0221	-1456.68
0.9193,0.0807	-1459.61
0.9848,0.0152	-1456.36
0.9856,0.0144	-1456.33
0.9795,0.0205	-1456.61
0.9457,0.0543	-1458.25
0.9765,0.0235	-1456.75
0.9055,0.0945	-1460.35
0.9903,0.0097	-1456.11
0.9870,0.0130	-1456.26
0.9811,0.0189	-1456.54
0.9478,0.0522	-1458.15
0.9755,0.0245	-1456.80
0.9125,0.0875	-1459.97
0.9935,0.0065	-1455.96
0.9863,0.0137	-1456.29
0.9786,0.0214	-1456.65
0.9454,0.0546	-1458.27
0.9798,0.0202	-1456.60
0.9252,0.0748	-1459.30
0.9915,0.0085	-1456.05
0.9854,0.0146	-1456.33
0.9694,0.0306	-1457.09
0.9541,0.0459	-1457.83
0.9784,0.0216	-1456.66
0.9351,0.0649	-1458.79
0.9909,0.0091	-1456.08
0.9852,0.0148	-1456.34
0.9726,0.0274	-1456.94
0.9556,0.0444	-1457.76
0.9727,0.0273	-1456.93
0.9221,0.0779	-1459.46
0.9921,0.0079	-1456.02
0.9859,0.0141	-1456.31
0.9711,0.0289	-1457.01
0.9562,0.0438	-1457.73
0.9676,0.0324	-1457.18
0.9279,0.0721	-1459.16
0.9919,0.0081	-1456.03
0.9873,0.0127	-1456.25
0.9708,0.0292	-1457.02
0.9588,0.0412	-1457.60
0.9714,0.0286	-1457.00
0.9239,0.0761	-1459.37
0.9896,0.0104	-1456.14
0.9863,0.0137	-1456.29
0.9832,0.0168	-1456.44
0.9652,0.0348	-1457.29
0.9715,0.0285	-1456.99
0.9050,0.0950	-1460.38
0.9884,0.0116	-1456.19
0.9860,0.0140	-1456.31
0.9885,0.0115	-1456.19
0.9680,0.0320	-1457.16
0.9693,0.0307	-1457.09
0.9177,0.0823	-1459.70
0.9864,0.0136	-1456.29
0.9832,0.0168	-1456.44
0.9900,0.0100	-1456.12
0.9735,0.0265	-1456.90
0.9695,0.0305	-1457.08
0.9216,0.0784	-1459.49
0.9866,0.0134	-1456.28
0.9808,0.0192	-1456.55
0.9905,0.0095	-1456.10
0.9691,0.0309	-1457.11
0.9766,0.0234	-1456.75
0.9406,0.0594	-1458.51
0.9848,0.0152	-1456.36
0.9820,0.0180	-1456.49
0.9908,0.0092	-1456.08
0.9764,0.0236	-1456.76
0.9816,0.0184	-1456.51
0.9426,0.0574	-1458.41
0.9866,0.0134	-1456.28
0.9834,0.0166	-1456.43
0.9927,0.0073	-1456.00
0.9750,0.0250	-1456.82
0.9732,0.0268	-1456.91
0.9499,0.0501	-1458.04
0.9907,0.0093	-1456.09
0.9841,0.0159	-1456.40
0.9923,0.0077	-1456.02
0.9751,0.0249	-1456.82
0.9660,0.0340	-1457.26
0.9438,0.0562	-1458.35
0.9890,0.0110	-1456.17
0.9849,0.0151	-1456.36
0.9921,0.0079	-1456.02
0.9736,0.0264	-1456.89
0.9693,0.0307	-1457.10
0.9403,0.0597	-1458.53
0.9907,0.0093	-1456.09
0.9837,0.0163	-1456.41
0.9910,0.0090	-1456.08
0.9718,0.0282	-1456.97
0.9562,0.0438	-1457.73
0.9391,0.0609	-1458.59
0.9892,0.0108	-1456.16
0.9846,0.0154	-1456.37
0.9924,0.0076	-1456.01
0.9689,0.0311	-1457.12
0.9463,0.0537	-1458.22
0.9289,0.0711	-1459.11
0.9882,0.0118	-1456.21
0.9874,0.0126	-1456.24
0.9920,0.0080	-1456.03
0.9626,0.0374	-1457.42
0.9487,0.0513	-1458.10
0.9510,0.0490	-1457.99
0.9890,0.0110	-1456.17
0.9858,0.0142	-1456.32
0.9907,0.0093	-1456.09
0.9591,0.0409	-1457.59
0.9517,0.0483	-1457.95
0.9633,0.0367	-1457.39
0.9889,0.0111	-1456.17
0.9867,0.0133	-1456.28
0.9899,0.0101	-1456.13
0.9583,0.0417	-1457.63
0.9589,0.0411	-1457.60
0.9623,0.0377	-1457.43
0.9872,0.0128	-1456.25
0.9867,0.0133	-1456.27
0.9934,0.0066	-1455.96
0.9607,0.0393	-1457.51
0.9594,0.0406	-1457.58
0.9648,0.0352	-1457.31
0.9876,0.0124	-1456.23
0.9840,0.0160	-1456.40
0.9928,0.0072	-1455.99
0.9539,0.0461	-1457.84
0.9530,0.0470	-1457.89
0.9754,0.0246	-1456.80
0.9852,0.0148	-1456.34
0.9851,0.0149	-1456.35
0.9928,0.0072	-1455.99
0.9615,0.0385	-1457.47
0.9524,0.0476	-1457.92
0.9734,0.0266	-1456.90
0.9843,0.0157	-1456.38
0.9813,0.0187	-1456.53
0.9935,0.0065	-1455.96
0.9642,0.0358	-1457.34
0.9538,0.0462	-1457.85
0.9803,0.0197	-1456.57
0.9829,0.0171	-1456.45
0.9840,0.0160	-1456.40
0.9924,0.0076	-1456.01
0.9592,0.0408	-1457.58
0.9450,0.0550	-1458.29
0.9840,0.0160	-1456.40
0.9852,0.0148	-1456.34
0.9853,0.0147	-1456.34
0.9941,0.0059	-1455.93
0.9664,0.0336	-1457.24
0.9424,0.0576	-1458.42
0.9865,0.0135	-1456.28
0.9838,0.0162	-1456.41
0.9866,0.0134	-1456.28
0.9952,0.0048	-1455.88
0.9657,0.0343	-1457.27
0.9428,0.0572	-1458.40
0.9857,0.0143	-1456.32
0.9844,0.0156	-1456.38
0.9870,0.0130	-1456.26
0.9948,0.0052	-1455.90
0.9602,0.0398	-1457.54
0.9439,0.0561	-1458.35
0.9827,0.0173	-1456.46
0.9849,0.0151	-1456.36
0.9872,0.0128	-1456.25
0.9966,0.0034	-1455.82
0.9627,0.0373	-1457.42
0.9487,0.0513	-1458.10
0.9802,0.0198	-1456.58
0.9872,0.0128	-1456.25
0.9849,0.0151	-1456.36
0.9978,0.0022	-1455.76
0.9643,0.0357	-1457.34
0.9420,0.0580	-1458.44
0.9819,0.0181	-1456.50
0.9861,0.0139	-1456.30
0.9841,0.0159	-1456.39
0.9979,0.0021	-1455.76
0.9603,0.0397	-1457.53
0.9314,0.0686	-1458.98
0.9848,0.0152	-1456.36
0.9884,0.0116	-1456.20
0.9853,0.0147	-1456.34
0.9975,0.0025	-1455.78
0.9458,0.0542	-1458.25
0.9307,0.0693	-1459.01
0.9853,0.0147	-1456.34
0.9908,0.0092	-1456.08
0.9830,0.0170	-1456.45
0.9973,0.0027	-1455.79
0.9507,0.0493	-1458.01
0.9302,0.0698	-1459.04
0.9841,0.0159	-1456.39
0.9917,0.0083	-1456.04
0.9826,0.0174	-1456.47
0.9965,0.0035	-1455.82
0.9580,0.0420	-1457.64
0.9350,0.0650	-1458.80
0.9855,0.0145	-1456.33
0.9918,0.0082	-1456.04
0.9790,0.0210	-1456.63
0.9966,0.0034	-1455.82
0.9563,0.0437	-1457.73
0.9198,0.0802	-1459.59
0.9858,0.0142	-1456.32
0.9875,0.0125	-1456.23
0.9730,0.0270	-1456.92
0.9969,0.0031	-1455.81
0.9495,0.0505	-1458.06
0.9219,0.0781	-1459.47
0.9872,0.0128	-1456.25
0.9844,0.0156	-1456.38
0.9729,0.0271	-1456.92
0.9952,0.0048	-1455.88
0.9548,0.0452	-1457.80
0.9244,0.0756	-1459.34
0.9857,0.0143	-1456.32
0.9830,0.0170	-1456.44
0.9707,0.0293	-1457.03
0.9959,0.0041	-1455.85
0.9657,0.0343	-1457.27
0.9388,0.0612	-1458.60
0.9864,0.0136	-1456.29
0.9784,0.0216	-1456.66
0.9665,0.0335	-1457.23
0.9960,0.0040	-1455.84
0.9636,0.0364	-1457.37
0.9223,0.0777	-1459.45
0.9847,0.0153	-1456.37
0.9727,0.0273	-1456.93
0.9647,0.0353	-1457.32
0.9967,0.0033	-1455.81
0.9672,0.0328	-1457.20
0.9231,0.0769	-1459.41
0.9855,0.0145	-1456.33
0.9729,0.0271	-1456.92
0.9626,0.0374	-1457.42
0.9976,0.0024	-1455.77
0.9723,0.0277	-1456.95
0.9358,0.0642	-1458.75
0.9874,0.0126	-1456.24
0.9753,0.0247	-1456.81
0.9680,0.0320	-1457.16
0.9979,0.0021	-1455.76
0.9707,0.0293	-1457.03
0.9263,0.0737	-1459.25
0.9911,0.0089	-1456.07
0.9740,0.0260	-1456.87
0.9731,0.0269	-1456.92
0.9980,0.0020	-1455.75
0.9701,0.0299	-1457.05
0.9273,0.0727	-1459.19
0.9911,0.0089	-1456.07
0.9688,0.0312	-1457.12
0.9698,0.0302	-1457.07
0.9981,0.0019	-1455.75
0.9754,0.0246	-1456.80
0.9404,0.0596	-1458.52
0.9896,0.0104	-1456.14
0.9625,0.0375	-1457.42
0.9689,0.0311	-1457.11
0.9982,0.0018	-1455.75
0.9748,0.0252	-1456.83
0.9295,0.0705	-1459.08
0.9901,0.0099	-1456.11
0.9570,0.0430	-1457.69
0.9674,0.0326	-1457.19
0.9982,0.0018	-1455.75
0.9750,0.0250	-1456.82
0.9337,0.0663	-1458.86
0.9889,0.0111	-1456.17
0.9508,0.0492	-1458.00
0.9749,0.0251	-1456.83
0.9982,0.0018	-1455.75
0.9694,0.0306	-1457.09
0.9298,0.0702	-1459.06
0.9889,0.0111	-1456.17
0.9511,0.0489	-1457.98
0.9786,0.0214	-1456.65
0.9981,0.0019	-1455.75
0.9733,0.0267	-1456.90
0.9316,0.0684	-1458.97
0.9841,0.0159	-1456.40
0.9426,0.0574	-1458.41
0.9791,0.0209	-1456.63
0.9980,0.0020	-1455.75
0.9753,0.0247	-1456.81
0.9285,0.0715	-1459.13
0.9876,0.0124	-1456.23
0.9383,0.0617	-1458.63
0.9777,0.0223	-1456.69
0.9982,0.0018	-1455.74
0.9731,0.0269	-1456.91
0.9215,0.0785	-1459.50
0.9849,0.0151	-1456.36
0.9342,0.0658	-1458.84
0.9741,0.0259	-1456.87
0.9982,0.0018	-1455.74
0.9706,0.0294	-1457.03
0.9230,0.0770	-1459.42
0.9829,0.0171	-1456.45
0.9270,0.0730	-1459.21
0.9733,0.0267	-1456.90
0.9982,0.0018	-1455.75
0.9803,0.0197	-1456.57
0.9252,0.0748	-1459.30
0.9819,0.0181	-1456.50
0.9221,0.0779	-1459.47
0.9804,0.0196	-1456.57
0.9981,0.0019	-1455.75
0.9833,0.0167	-1456.43
0.9270,0.0730	-1459.21
0.9853,0.0147	-1456.34
0.9199,0.0801	-1459.58
0.9786,0.0214	-1456.65
0.9981,0.0019	-1455.75
0.9839,0.0161	-1456.40
0.9285,0.0715	-1459.13
0.9852,0.0148	-1456.34
0.9147,0.0853	-1459.86
0.9791,0.0209	-1456.63
0.9982,0.0018	-1455.74
0.9832,0.0168	-1456.43
0.9190,0.0810	-1459.63
0.9872,0.0128	-1456.25
0.9109,0.0891	-1460.06
0.9841,0.0159	-1456.39
0.9981,0.0019	-1455.75
0.9829,0.0171	-1456.45
0.9105,0.0895	-1460.08
0.9872,0.0128	-1456.25
0.9013,0.0987	-1460.58
0.9847,0.0153	-1456.37
0.9986,0.0014	-1455.73
0.9800,0.0200	-1456.59
0.9285,0.0715	-1459.13
0.9899,0.0101	-1456.13
0.9276,0.0724	-1459.18
0.9800,0.0200	-1456.59
0.9984,0.0016	-1455.74
0.9805,0.0195	-1456.57
0.9310,0.0690	-1459.00
0.9905,0.0095	-1456.10
0.9356,0.0644	-1458.76
0.9815,0.0185	-1456.52
0.9982,0.0018	-1455.74
0.9827,0.0173	-1456.46
0.9280,0.0720	-1459.16
0.9911,0.0089	-1456.07
0.9383,0.0617	-1458.63
0.9815,0.0185	-1456.52
0.9978,0.0022	-1455.76
0.9809,0.0191	-1456.55
0.9394,0.0606	-1458.57
0.9919,0.0081	-1456.03
0.9370,0.0630	-1458.69
0.9835,0.0165	-1456.42
0.9976,0.0024	-1455.77
0.9827,0.0173	-1456.46
0.9475,0.0525	-1458.16
0.9933,0.0067	-1455.97
0.9301,0.0699	-1459.05
0.9785,0.0215	-1456.66
0.9970,0.0030	-1455.80
0.9859,0.0141	-1456.31
0.9442,0.0558	-1458.33
0.9934,0.0066	-1455.96
0.9379,0.0621	-1458.65
0.9739,0.0261	-1456.88
0.9972,0.0028	-1455.79
0.9832,0.0168	-1456.44
0.9298,0.0702	-1459.06
0.9930,0.0070	-1455.98
0.9446,0.0554	-1458.31
0.9746,0.0254	-1456.84
0.9977,0.0023	-1455.77
0.9793,0.0207	-1456.62
0.9477,0.0523	-1458.15
0.9923,0.0077	-1456.01
0.9394,0.0606	-1458.57
0.9753,0.0247	-1456.81
0.9972,0.0028	-1455.79
0.9817,0.0183	-1456.51
0.9499,0.0501	-1458.04
0.9938,0.0062	-1455.95
0.9423,0.0577	-1458.42
0.9715,0.0285	-1456.99
0.9973,0.0027	-1455.79
0.9839,0.0161	-1456.40
0.9396,0.0604	-1458.56
0.9933,0.0067	-1455.97
0.9249,0.0751	-1459.32
0.9790,0.0210	-1456.63
0.9974,0.0026	-1455.78
0.9800,0.0200	-1456.59
0.9523,0.0477	-1457.92
0.9943,0.0057	-1455.92
0.9439,0.0561	-1458.34
0.9803,0.0197	-1456.57
0.9976,0.0024	-1455.77
0.9772,0.0228	-1456.72
0.9599,0.0401	-1457.55
0.9950,0.0050	-1455.89
0.9576,0.0424	-1457.66
0.9787,0.0213	-1456.65
0.9971,0.0029	-1455.80
0.9733,0.0267	-1456.90
0.9503,0.0497	-1458.02
0.9951,0.0049	-1455.89
0.9608,0.0392	-1457.51
0.9746,0.0254	-1456.84
0.9975,0.0025	-1455.77
0.9729,0.0271	-1456.92
0.9537,0.0463	-1457.85
0.9957,0.0043	-1455.86
0.9656,0.0344	-1457.27
0.9710,0.0290	-1457.01
0.9979,0.0021	-1455.76
0.9781,0.0219	-1456.68
0.9488,0.0512	-1458.10
0.9953,0.0047	-1455.87
0.9608,0.0392	-1457.51
0.9681,0.0319	-1457.15
0.9980,0.0020	-1455.75
0.9806,0.0194	-1456.56
0.9508,0.0492	-1458.00
0.9950,0.0050	-1455.89
0.9640,0.0360	-1457.35
0.9714,0.0286	-1457.00
0.9974,0.0026	-1455.78
0.9812,0.0188	-1456.53
0.9493,0.0507	-1458.07
0.9950,0.0050	-1455.89
0.9609,0.0391	-1457.50
0.9672,0.0328	-1457.19
0.9966,0.0034	-1455.82
0.9845,0.0155	-1456.37
0.9459,0.0541	-1458.24
0.9958,0.0042	-1455.85
0.9652,0.0348	-1457.29
0.9733,0.0267	-1456.91
0.9968,0.0032	-1455.81
0.9798,0.0202	-1456.59
0.9437,0.0563	-1458.35
0.9960,0.0040	-1455.85
0.9694,0.0306	-1457.09
0.9785,0.0215	-1456.66
0.9975,0.0025	-1455.78
0.9786,0.0214	-1456.65
0.9549,0.0451	-1457.80
0.9950,0.0050	-1455.89
0.9636,0.0364	-1457.37
0.9800,0.0200	-1456.59
0.9980,0.0020	-1455.75
0.9792,0.0208	-1456.62
0.9603,0.0397	-1457.53
0.9953,0.0047	-1455.88
0.9602,0.0398	-1457.54
0.9793,0.0207	-1456.62
0.9980,0.0020	-1455.75
0.9797,0.0203	-1456.60
0.9685,0.0315	-1457.14
0.9957,0.0043	-1455.86
0.9662,0.0338	-1457.25
0.9789,0.0211	-1456.64
0.9977,0.0023	-1455.77
0.9820,0.0180	-1456.49
0.9758,0.0242	-1456.79
0.9961,0.0039	-1455.84
0.9720,0.0280	-1456.97
0.9834,0.0166	-1456.43
0.9976,0.0024	-1455.77
0.9811,0.0189	-1456.54
0.9746,0.0254	-1456.84
0.9961,0.0039	-1455.84
0.9760,0.0240	-1456.78
0.9854,0.0146	-1456.33
0.9978,0.0022	-1455.76
0.9849,0.0151	-1456.36
0.9751,0.0249	-1456.82
0.9950,0.0050	-1455.89
0.9743,0.0257	-1456.85
0.9875,0.0125	-1456.23
0.9983,0.0017	-1455.74
0.9805,0.0195	-1456.56
0.9773,0.0227	-1456.71
0.9952,0.0048	-1455.88
0.9685,0.0315	-1457.13
0.9893,0.0107	-1456.15
0.9988,0.0012	-1455.72
0.9790,0.0210	-1456.63
0.9810,0.0190	-1456.54
0.9941,0.0059	-1455.93
0.9602,0.0398	-1457.53
0.9848,0.0152	-1456.36
0.9985,0.0015	-1455.73
0.9807,0.0193	-1456.55
0.9833,0.0167	-1456.43
0.9950,0.0050	-1455.89
0.9581,0.0419	-1457.64
0.9848,0.0152	-1456.36
0.9983,0.0017	-1455.74
0.9769,0.0231	-1456.73
0.9845,0.0155	-1456.37
0.9953,0.0047	-1455.88
0.9600,0.0400	-1457.54
0.9814,0.0186	-1456.52
0.9987,0.0013	-1455.72
0.9791,0.0209	-1456.63
0.9871,0.0129	-1456.26
0.9949,0.0051	-1455.90
0.9537,0.0463	-1457.85
0.9711,0.0289	-1457.01
0.9987,0.0013	-1455.72
0.9798,0.0202	-1456.59
0.9875,0.0125	-1456.24
0.9942,0.0058	-1455.93
0.9542,0.0458	-1457.83
0.9775,0.0225	-1456.71
0.9986,0.0014	-1455.73
0.9724,0.0276	-1456.95
0.9866,0.0134	-1456.28
0.9938,0.0062	-1455.95
0.9485,0.0515	-1458.11
0.9778,0.0222	-1456.69
0.9986,0.0014	-1455.73
0.9694,0.0306	-1457.09
0.9849,0.0151	-1456.36
0.9946,0.0054	-1455.91
0.9520,0.0480	-1457.94
0.9790,0.0210	-1456.63
0.9988,0.0012	-1455.72
0.9760,0.0240	-1456.78
0.9854,0.0146	-1456.33
0.9942,0.0058	-1455.93
0.9606,0.0394	-1457.51
0.9846,0.0154	-1456.37
0.9989,0.0011	-1455.71
0.9767,0.0233	-1456.74
0.9792,0.0208	-1456.62
0.9947,0.0053	-1455.91
0.9549,0.0451	-1457.79
0.9835,0.0165	-1456.42
0.9990,0.0010	-1455.71
0.9711,0.0289	-1457.01
0.9742,0.0258	-1456.86
0.9951,0.0049	-1455.89
0.9583,0.0417	-1457.63
0.9820,0.0180	-1456.49
0.9991,0.0009	-1455.70
0.9726,0.0274	-1456.94
0.9762,0.0238	-1456.77
0.9926,0.0074	-1456.00
0.9501,0.0499	-1458.04
0.9825,0.0175	-1456.47
0.9992,0.0008	-1455.70
0.9606,0.0394	-1457.51
0.9734,0.0266	-1456.90
0.9919,0.0081	-1456.04
0.9492,0.0508	-1458.08
0.9798,0.0202	-1456.60
0.9993,0.0007	-1455.69
0.9618,0.0382	-1457.46
0.9722,0.0278	-1456.96
0.9907,0.0093	-1456.09
0.9396,0.0604	-1458.56
0.9845,0.0155	-1456.38
0.9991,0.0009	-1455.70
0.9530,0.0470	-1457.89
0.9707,0.0293	-1457.03
0.9910,0.0090	-1456.08
0.9333,0.0667	-1458.88
0.9873,0.0127	-1456.24
0.9991,0.0009	-1455.70
0.9510,0.0490	-1457.99
0.9710,0.0290	-1457.01
0.9895,0.0105	-1456.14
0.9291,0.0709	-1459.10
0.9855,0.0145	-1456.33
0.9992,0.0008	-1455.70
0.9438,0.0562	-1458.35
0.9709,0.0291	-1457.02
0.9892,0.0108	-1456.16
0.9328,0.0672	-1458.91
0.9860,0.0140	-1456.31
0.9993,0.0007	-1455.69
0.9546,0.0454	-1457.81
0.9772,0.0228	-1456.72
0.9904,0.0096	-1456.10
0.9340,0.0660	-1458.85
0.9829,0.0171	-1456.45
0.9994,0.0006	-1455.69
0.9421,0.0579	-1458.43
0.9742,0.0258	-1456.86
0.9914,0.0086	-1456.05
0.9199,0.0801	-1459.58
0.9815,0.0185	-1456.52
0.9992,0.0008	-1455.70
0.9605,0.0395	-1457.52
0.9763,0.0237	-1456.76
0.9897,0.0103	-1456.13
0.8957,0.1043	-1460.89
0.9812,0.0188	-1456.53
0.9990,0.0010	-1455.71
0.9653,0.0347	-1457.29
0.9723,0.0277	-1456.95
0.9866,0.0134	-1456.28
0.8708,0.1292	-1462.30
0.9785,0.0215	-1456.66
0.9989,0.0011	-1455.71
0.9580,0.0420	-1457.65
0.9719,0.0281	-1456.97
0.9845,0.0155	-1456.38
0.8761,0.1239	-1461.99
0.9766,0.0234	-1456.75
0.9991,0.0009	-1455.71
0.9570,0.0430	-1457.69
0.9689,0.0311	-1457.12
0.9836,0.0164	-1456.42
0.8793,0.1207	-1461.81
0.9788,0.0212	-1456.64
0.9990,0.0010	-1455.71
0.9524,0.0476	-1457.92
0.9610,0.0390	-1457.50
0.9829,0.0171	-1456.45
0.8768,0.1232	-1461.95
0.9775,0.0225	-1456.70
0.9991,0.0009	-1455.70
0.9503,0.0497	-1458.02
0.9623,0.0377	-1457.43
0.9763,0.0237	-1456.76
0.8346,0.1654	-1464.49
0.9823,0.0177	-1456.48
0.9991,0.0009	-1455.70
0.9554,0.0446	-1457.77
0.9516,0.0484	-1457.96
0.9711,0.0289	-1457.01
0.8266,0.1734	-1464.99
0.9843,0.0157	-1456.39
0.9989,0.0011	-1455.71
0.9526,0.0474	-1457.91
0.9595,0.0405	-1457.57
0.9786,0.0214	-1456.65
0.8115,0.1885	-1465.97
0.9820,0.0180	-1456.49
0.9988,0.0012	-1455.72
0.9619,0.0381	-1457.45
0.9600,0.0400	-1457.55
0.9832,0.0168	-1456.44
0.8389,0.1611	-1464.22
0.9857,0.0143	-1456.32
0.9985,0.0015	-1455.73
0.9617,0.0383	-1457.46
0.9622,0.0378	-1457.44
0.9839,0.0161	-1456.40
0.8510,0.1490	-1463.47
0.9851,0.0149	-1456.35
0.9986,0.0014	-1455.73
0.9557,0.0443	-1457.76
0.9627,0.0373	-1457.41
0.9874,0.0126	-1456.24
0.8502,0.1498	-1463.52
0.9844,0.0156	-1456.38
0.9989,0.0011	-1455.71
0.9443,0.0557	-1458.32
0.9582,0.0418	-1457.63
0.9846,0.0154	-1456.37
0.8578,0.1422	-1463.06
0.9836,0.0164	-1456.42
0.9991,0.0009	-1455.71
0.9364,0.0636	-1458.72
0.9634,0.0366	-1457.38
0.9764,0.0236	-1456.76
0.8418,0.1582	-1464.04
0.9859,0.0141	-1456.31
0.9992,0.0008	-1455.70
0.9344,0.0656	-1458.83
0.9605,0.0395	-1457.52
0.9804,0.0196	-1456.57
0.8228,0.1772	-1465.24
0.9876,0.0124	-1456.23
0.9993,0.0007	-1455.69
0.9257,0.0743	-1459.28
0.9675,0.0325	-1457.18
0.9783,0.0217	-1456.67
0.8343,0.1657	-1464.51
0.9874,0.0126	-1456.24
0.9993,0.0007	-1455.70
0.9287,0.0713	-1459.12
0.9730,0.0270	-1456.92
0.9798,0.0202	-1456.60
0.8564,0.1436	-1463.15
0.9905,0.0095	-1456.10
0.9993,0.0007	-1455.70
0.9369,0.0631	-1458.70
0.9713,0.0287	-1457.00
0.9809,0.0191	-1456.54
0.8769,0.1231	-1461.95
0.9897,0.0103	-1456.13
0.9992,0.0008	-1455.70
0.9151,0.0849	-1459.84
0.9701,0.0299	-1457.06
0.9840,0.0160	-1456.40
0.9063,0.0937	-1460.31
0.9910,0.0090	-1456.08
0.9993,0.0007	-1455.69
0.9229,0.0771	-1459.42
0.9707,0.0293	-1457.03
0.9837,0.0163	-1456.41
0.9145,0.0855	-1459.87
0.9919,0.0081	-1456.03
0.9993,0.0007	-1455.69
0.8997,0.1003	-1460.67
0.9716,0.0284	-1456.98
0.9783,0.0217	-1456.67
0.9092,0.0908	-1460.15
0.9913,0.0087	-1456.06
0.9993,0.0007	-1455.69
0.8825,0.1175	-1461.63
0.9683,0.0317	-1457.14
0.9771,0.0229	-1456.72
0.9312,0.0688	-1458.99
0.9922,0.0078	-1456.02
0.9994,0.0006	-1455.69
0.8861,0.1139	-1461.43
0.9736,0.0264	-1456.89
0.9845,0.0155	-1456.37
0.9411,0.0589	-1458.49
0.9909,0.0091	-1456.08
0.9994,0.0006	-1455.69
0.8970,0.1030	-1460.82
0.9776,0.0224	-1456.70
0.9839,0.0161	-1456.40
0.9511,0.0489	-1457.98
0.9914,0.0086	-1456.06
0.9994,0.0006	-1455.69
0.9072,0.0928	-1460.26
0.9757,0.0243	-1456.79
0.9822,0.0178	-1456.48
0.9482,0.0518	-1458.13
0.9927,0.0073	-1455.99
0.9995,0.0005	-1455.69
0.9127,0.0873	-1459.97
0.9796,0.0204	-1456.61
0.9826,0.0174	-1456.47
0.9408,0.0592	-1458.50
0.9926,0.0074	-1456.00
0.9994,0.0006	-1455.69
0.8969,0.1031	-1460.82
0.9801,0.0199	-1456.58
0.9803,0.0197	-1456.57
0.9401,0.0599	-1458.54
0.9940,0.0060	-1455.94
0.9994,0.0006	-1455.69
0.9154,0.0846	-1459.82
0.9783,0.0217	-1456.66
0.9829,0.0171	-1456.45
0.9541,0.0459	-1457.84
0.9942,0.0058	-1455.93
0.9994,0.0006	-1455.69
0.9288,0.0712	-1459.11
0.9830,0.0170	-1456.45
0.9817,0.0183	-1456.51
0.9497,0.0503	-1458.05
0.9948,0.0052	-1455.90
0.9994,0.0006	-1455.69
0.9326,0.0674	-1458.92
0.9826,0.0174	-1456.46
0.9781,0.0219	-1456.68
0.9560,0.0440	-1457.74
0.9954,0.0046	-1455.87
0.9995,0.0005	-1455.69
0.9386,0.0614	-1458.61
0.9806,0.0194	-1456.56
0.9762,0.0238	-1456.77
0.9662,0.0338	-1457.25
0.9955,0.0045	-1455.87
0.9995,0.0005	-1455.69
0.9301,0.0699	-1459.05
0.9806,0.0194	-1456.56
0.9781,0.0219	-1456.68
0.9704,0.0296	-1457.04
0.9942,0.0058	-1455.93
0.9995,0.0005	-1455.69
0.9374,0.0626	-1458.67
0.9852,0.0148	-1456.34
0.9764,0.0236	-1456.76
0.9763,0.0237	-1456.76
0.9945,0.0055	-1455.91
0.9993,0.0007	-1455.69
0.9261,0.0739	-1459.26
0.9835,0.0165	-1456.42
0.9767,0.0233	-1456.74
0.9757,0.0243	-1456.79
0.9950,0.0050	-1455.89
0.9993,0.0007	-1455.69
0.9141,0.0859	-1459.89
0.9812,0.0188	-1456.53
0.9790,0.0210	-1456.63
0.9807,0.0193	-1456.55
0.9943,0.0057	-1455.92
0.9994,0.0006	-1455.69
0.9260,0.0740	-1459.26
0.9803,0.0197	-1456.57
0.9769,0.0231	-1456.73
0.9788,0.0212	-1456.64
0.9960,0.0040	-1455.84
0.9994,0.0006	-1455.69
0.8890,0.1110	-1461.26
0.9850,0.0150	-1456.35
0.9783,0.0217	-1456.67
0.9769,0.0231	-1456.73
0.9956,0.0044	-1455.86
0.9993,0.0007	-1455.69
0.9128,0.0872	-1459.96
0.9847,0.0153	-1456.37
0.9825,0.0175	-1456.47
0.9739,0.0261	-1456.88
0.9955,0.0045	-1455.87
0.9993,0.0007	-1455.69
0.9307,0.0693	-1459.02
0.9852,0.0148	-1456.34
0.9874,0.0126	-1456.24
0.9768,0.0232	-1456.74
0.9944,0.0056	-1455.92
0.9993,0.0007	-1455.69
0.9234,0.0766	-1459.40
0.9861,0.0139	-1456.30
0.9886,0.0114	-1456.18
0.9728,0.0272	-1456.93
0.9942,0.0058	-1455.93
0.9994,0.0006	-1455.69
0.9077,0.0923	-1460.23
0.9870,0.0130	-1456.26
0.9867,0.0133	-1456.27
0.9716,0.0284	-1456.99
0.9931,0.0069	-1455.98
0.9994,0.0006	-1455.69
0.9001,0.0999	-1460.64
0.9863,0.0137	-1456.29
0.9823,0.0177	-1456.48
0.9699,0.0301	-1457.07
0.9935,0.0065	-1455.96
0.9993,0.0007	-1455.69
0.9003,0.0997	-1460.63
0.9859,0.0141	-1456.31
0.9861,0.0139	-1456.30
0.9725,0.0275	-1456.94
0.9930,0.0070	-1455.98
0.9995,0.0005	-1455.69
0.9196,0.0804	-1459.59
0.9859,0.0141	-1456.31
0.9835,0.0165	-1456.42
0.9773,0.0227	-1456.71
0.9932,0.0068	-1455.97
0.9992,0.0008	-1455.70
0.9250,0.0750	-1459.31
0.9834,0.0166	-1456.43
0.9828,0.0172	-1456.46
0.9791,0.0209	-1456.63
0.9907,0.0093	-1456.09
0.9993,0.0007	-1455.69
0.9189,0.0811	-1459.63
0.9779,0.0221	-1456.69
0.9833,0.0167	-1456.43
0.9796,0.0204	-1456.61
0.9921,0.0079	-1456.02
0.9993,0.0007	-1455.69
0.9161,0.0839	-1459.78
0.9774,0.0226	-1456.71
0.9839,0.0161	-1456.41
0.9794,0.0206	-1456.62
0.9910,0.0090	-1456.07
0.9994,0.0006	-1455.69
0.9087,0.0913	-1460.18
0.9749,0.0251	-1456.83
0.9811,0.0189	-1456.53
0.9818,0.0182	-1456.50
0.9886,0.0114	-1456.18
0.9994,0.0006	-1455.69
0.8919,0.1081	-1461.10
0.9780,0.0220	-1456.68
0.9799,0.0201	-1456.59
0.9818,0.0182	-1456.50
0.9876,0.0124	-1456.23
0.9994,0.0006	-1455.69
0.8632,0.1368	-1462.75
0.9794,0.0206	-1456.62
0.9783,0.0217	-1456.67
0.9794,0.0206	-1456.61
0.9868,0.0132	-1456.27
0.9995,0.0005	-1455.69
0.8468,0.1532	-1463.73
0.9716,0.0284	-1456.98
0.9783,0.0217	-1456.67
0.9810,0.0190	-1456.54
0.9883,0.0117	-1456.20
0.9992,0.0008	-1455.70
0.8535,0.1465	-1463.33
0.9695,0.0305	-1457.08
0.9785,0.0215	-1456.66
0.9818,0.0182	-1456.50
0.9896,0.0104	-1456.14
0.9991,0.0009	-1455.71
0.8359,0.1641	-1464.40
0.9757,0.0243	-1456.79
0.9791,0.0209	-1456.63
0.9847,0.0153	-1456.37
0.9885,0.0115	-1456.19
0.9991,0.0009	-1455.71
0.8405,0.1595	-1464.12
0.9783,0.0217	-1456.67
0.9735,0.0265	-1456.89
0.9835,0.0165	-1456.42
0.9888,0.0112	-1456.17
0.9990,0.0010	-1455.71
0.8693,0.1307	-1462.39
0.9723,0.0277	-1456.95
0.9742,0.0258	-1456.86
0.9833,0.0167	-1456.43
0.9868,0.0132	-1456.27
0.9990,0.0010	-1455.71
0.8658,0.1342	-1462.59
0.9758,0.0242	-1456.79
0.9784,0.0216	-1456.66
0.9830,0.0170	-1456.44
0.9870,0.0130	-1456.26
0.9990,0.0010	-1455.71
0.8728,0.1272	-1462.18
0.9812,0.0188	-1456.53
0.9702,0.0298	-1457.05
0.9831,0.0169	-1456.44
0.9870,0.0130	-1456.26
0.9989,0.0011	-1455.71
0.9148,0.0852	-1459.85
0.9854,0.0146	-1456.33
0.9767,0.0233	-1456.74
0.9837,0.0163	-1456.42
0.9876,0.0124	-1456.23
0.9988,0.0012	-1455.72
0.8999,0.1001	-1460.65
0.9817,0.0183	-1456.51
0.9745,0.0255	-1456.85
0.9881,0.0119	-1456.21
0.9853,0.0147	-1456.34
0.9986,0.0014	-1455.73
0.8977,0.1023	-1460.78
0.9774,0.0226	-1456.71
0.9797,0.0203	-1456.60
0.9891,0.0109	-1456.16
0.9819,0.0181	-1456.50
0.9983,0.0017	-1455.74
0.8891,0.1109	-1461.26
0.9765,0.0235	-1456.75
0.9773,0.0227	-1456.71
0.9895,0.0105	-1456.14
0.9763,0.0237	-1456.76
0.9980,0.0020	-1455.75
0.9138,0.0862	-1459.91
0.9731,0.0269	-1456.91
0.9759,0.0241	-1456.78
0.9917,0.0083	-1456.04
0.9756,0.0244	-1456.79
0.9979,0.0021	-1455.76
0.8895,0.1105	-1461.23
0.9749,0.0251	-1456.83
0.9722,0.0278	-1456.96
0.9918,0.0082	-1456.04
0.9734,0.0266	-1456.90
0.9974,0.0026	-1455.78
0.8862,0.1138	-1461.42
0.9739,0.0261	-1456.87
0.9767,0.0233	-1456.74
0.9911,0.0089	-1456.07
0.9711,0.0289	-1457.01
0.9976,0.0024	-1455.77
0.8859,0.1141	-1461.43
0.9772,0.0228	-1456.72
0.9812,0.0188	-1456.53
0.9916,0.0084	-1456.04
0.9687,0.0313	-1457.12
0.9977,0.0023	-1455.77
0.8810,0.1190	-1461.71
0.9825,0.0175	-1456.47
0.9818,0.0182	-1456.50
0.9910,0.0090	-1456.08
0.9694,0.0306	-1457.09
0.9979,0.0021	-1455.76
0.8908,0.1092	-1461.16
0.9810,0.0190	-1456.54
0.9847,0.0153	-1456.37
0.9931,0.0069	-1455.98
0.9793,0.0207	-1456.62
0.9978,0.0022	-1455.76
0.8800,0.1200	-1461.77
0.9825,0.0175	-1456.47
0.9835,0.0165	-1456.42
0.9941,0.0059	-1455.93
0.9708,0.0292	-1457.02
0.9979,0.0021	-1455.76
0.8800,0.1200	-1461.77
0.9843,0.0157	-1456.39
0.9809,0.0191	-1456.55
0.9943,0.0057	-1455.92
0.9670,0.0330	-1457.21
0.9983,0.0017	-1455.74
0.8931,0.1069	-1461.03
0.9818,0.0182	-1456.50
0.9817,0.0183	-1456.51
0.9947,0.0053	-1455.90
0.9469,0.0531	-1458.19
0.9984,0.0016	-1455.73
0.9181,0.0819	-1459.68
0.9799,0.0201	-1456.59
0.9826,0.0174	-1456.47
0.9934,0.0066	-1455.97
0.9425,0.0575	-1458.41
0.9980,0.0020	-1455.75
0.9046,0.0954	-1460.40
0.9798,0.0202	-1456.60
0.9875,0.0125	-1456.24
0.9941,0.0059	-1455.93
0.9384,0.0616	-1458.62
0.9977,0.0023	-1455.77
0.9198,0.0802	-1459.59
0.9793,0.0207	-1456.62
0.9865,0.0135	-1456.28
0.9944,0.0056	-1455.92
0.9387,0.0613	-1458.61
0.9974,0.0026	-1455.78
0.9351,0.0649	-1458.79
0.9765,0.0235	-1456.75
0.9878,0.0122	-1456.22
0.9928,0.0072	-1455.99
0.9540,0.0460	-1457.84
0.9972,0.0028	-1455.79
0.9285,0.0715	-1459.13
0.9783,0.0217	-1456.67
0.9875,0.0125	-1456.23
0.9894,0.0106	-1456.15
0.9619,0.0381	-1457.45
0.9976,0.0024	-1455.77
0.9347,0.0653	-1458.81
0.9757,0.0243	-1456.79
0.9882,0.0118	-1456.20
0.9886,0.0114	-1456.19
0.9628,0.0372	-1457.41
0.9970,0.0030	-1455.80
0.9434,0.0566	-1458.37
0.9775,0.0225	-1456.71
0.9855,0.0145	-1456.33
0.9893,0.0107	-1456.15
0.9662,0.0338	-1457.24
0.9969,0.0031	-1455.81
0.9418,0.0582	-1458.45
0.9784,0.0216	-1456.66
0.9862,0.0138	-1456.30
0.9902,0.0098	-1456.11
0.9669,0.0331	-1457.21
0.9952,0.0048	-1455.88
0.9452,0.0548	-1458.28
0.9774,0.0226	-1456.71
0.9841,0.0159	-1456.39
0.9884,0.0116	-1456.19
0.9527,0.0473	-1457.90
0.9943,0.0057	-1455.92
0.9482,0.0518	-1458.13
0.9771,0.0229	-1456.72
0.9854,0.0146	-1456.33
0.9859,0.0141	-1456.31
0.9585,0.0415	-1457.62
0.9952,0.0048	-1455.88
0.9443,0.0557	-1458.32
0.9735,0.0265	-1456.90
0.9834,0.0166	-1456.43
0.9818,0.0182	-1456.50
0.9629,0.0371	-1457.40
0.9937,0.0063	-1455.95
0.9563,0.0437	-1457.73
0.9770,0.0230	-1456.73
0.9853,0.0147	-1456.34
0.9853,0.0147	-1456.34
0.9697,0.0303	-1457.08
0.9927,0.0073	-1456.00
0.9532,0.0468	-1457.88
0.9721,0.0279	-1456.96
0.9793,0.0207	-1456.62
0.9753,0.0247	-1456.81
0.9744,0.0256	-1456.85
0.9919,0.0081	-1456.03
0.9528,0.0472	-1457.90
0.9628,0.0372	-1457.41
0.9826,0.0174	-1456.47
0.9757,0.0243	-1456.79
0.9651,0.0349	-1457.30
0.9916,0.0084	-1456.05
0.9595,0.0405	-1457.57
0.9671,0.0329	-1457.20
0.9840,0.0160	-1456.40
0.9807,0.0193	-1456.56
0.9690,0.0310	-1457.11
0.9896,0.0104	-1456.14
0.9583,0.0417	-1457.63
0.9696,0.0304	-1457.08
0.9858,0.0142	-1456.31
0.9778,0.0222	-1456.69
0.9757,0.0243	-1456.79
0.9922,0.0078	-1456.02
0.9553,0.0447	-1457.78
0.9698,0.0302	-1457.07
0.9872,0.0128	-1456.25
0.9725,0.0275	-1456.94
0.9723,0.0277	-1456.95
0.9917,0.0083	-1456.04
0.9561,0.0439	-1457.74
0.9630,0.0370	-1457.40
0.9866,0.0134	-1456.28
0.9737,0.0263	-1456.89
0.9672,0.0328	-1457.20
0.9910,0.0090	-1456.08
0.9611,0.0389	-1457.49
0.9544,0.0456	-1457.82
0.9878,0.0122	-1456.22
0.9733,0.0267	-1456.90
0.9736,0.0264	-1456.89
0.9887,0.0113	-1456.18
0.9629,0.0371	-1457.40
0.9424,0.0576	-1458.42
0.9887,0.0113	-1456.18
0.9655,0.0345	-1457.28
0.9757,0.0243	-1456.79
0.9906,0.0094	-1456.09
0.9633,0.0367	-1457.39
0.9480,0.0520	-1458.14
0.9894,0.0106	-1456.15
0.9656,0.0344	-1457.27
0.9709,0.0291	-1457.02
0.9883,0.0117	-1456.20
0.9683,0.0317	-1457.14
0.9424,0.0576	-1458.42
0.9881,0.0119	-1456.21
0.9717,0.0283	-1456.98
0.9685,0.0315	-1457.13
0.9908,0.0092	-1456.08
0.9687,0.0313	-1457.12
0.9409,0.0591	-1458.49
0.9875,0.0125	-1456.24
0.9721,0.0279	-1456.96
0.9645,0.0355	-1457.33
0.9905,0.0095	-1456.10
0.9680,0.0320	-1457.16
0.9444,0.0556	-1458.32
0.9893,0.0107	-1456.15
0.9740,0.0260	-1456.87
0.9616,0.0384	-1457.47
0.9921,0.0079	-1456.02
0.9694,0.0306	-1457.09
0.9477,0.0523	-1458.16
0.9885,0.0115	-1456.19
0.9725,0.0275	-1456.94
0.9588,0.0412	-1457.60
0.9919,0.0081	-1456.03
0.9717,0.0283	-1456.98
0.9377,0.0623	-1458.66
0.9879,0.0121	-1456.22
0.9720,0.0280	-1456.97
0.9566,0.0434	-1457.71
0.9932,0.0068	-1455.97
0.9703,0.0297	-1457.05
0.9287,0.0713	-1459.12
0.9888,0.0112	-1456.18
0.9770,0.0230	-1456.73
0.9553,0.0447	-1457.78
0.9944,0.0056	-1455.92
0.9748,0.0252	-1456.83
0.9353,0.0647	-1458.78
0.9893,0.0107	-1456.15
0.9819,0.0181	-1456.50
0.9632,0.0368	-1457.39
0.9940,0.0060	-1455.94
0.9686,0.0314	-1457.13
0.9355,0.0645	-1458.77
0.9894,0.0106	-1456.15
0.9781,0.0219	-1456.68
0.9542,0.0458	-1457.83
0.9944,0.0056	-1455.92
0.9648,0.0352	-1457.31
0.9404,0.0596	-1458.52
0.9917,0.0083	-1456.04
0.9712,0.0288	-1457.00
0.9574,0.0426	-1457.67
0.9945,0.0055	-1455.91
0.9633,0.0367	-1457.38
0.9470,0.0530	-1458.19
0.9904,0.0096	-1456.10
0.9614,0.0386	-1457.48
0.9598,0.0402	-1457.56
0.9946,0.0054	-1455.91
0.9659,0.0341	-1457.26
0.9436,0.0564	-1458.36
0.9919,0.0081	-1456.03
0.9603,0.0397	-1457.53
0.9615,0.0385	-1457.47
0.9950,0.0050	-1455.89
0.9746,0.0254	-1456.84
0.9364,0.0636	-1458.72
0.9915,0.0085	-1456.05
0.9650,0.0350	-1457.30
0.9662,0.0338	-1457.25
0.9956,0.0044	-1455.86
0.9756,0.0244	-1456.79
0.9417,0.0583	-1458.46
0.9890,0.0110	-1456.17
0.9659,0.0341	-1457.26
0.9634,0.0366	-1457.38
0.9954,0.0046	-1455.87
0.9731,0.0269	-1456.92
0.9440,0.0560	-1458.34
0.9903,0.0097	-1456.11
0.9712,0.0288	-1457.01
0.9647,0.0353	-1457.32
0.9960,0.0040	-1455.85
0.9766,0.0234	-1456.75
0.9353,0.0647	-1458.78
0.9906,0.0094	-1456.09
0.9634,0.0366	-1457.38
0.9629,0.0371	-1457.40
0.9959,0.0041	-1455.85
0.9772,0.0228	-1456.72
0.9571,0.0429	-1457.69
0.9902,0.0098	-1456.11
0.9643,0.0357	-1457.34
0.9608,0.0392	-1457.51
0.9969,0.0031	-1455.81
0.9791,0.0209	-1456.63
0.9471,0.0529	-1458.18
0.9911,0.0089	-1456.07
0.9600,0.0400	-1457.55
0.9622,0.0378	-1457.44
0.9972,0.0028	-1455.79
0.9746,0.0254	-1456.84
0.9534,0.0466	-1457.87
0.9909,0.0091	-1456.08
0.9666,0.0334	-1457.22
0.9672,0.0328	-1457.19
0.9972,0.0028	-1455.79
0.9732,0.0268	-1456.91
0.9624,0.0376	-1457.43
0.9927,0.0073	-1456.00
0.9624,0.0376	-1457.43
0.9723,0.0277	-1456.95
0.9976,0.0024	-1455.77
0.9696,0.0304	-1457.08
0.9662,0.0338	-1457.25
0.9934,0.0066	-1455.96
0.9632,0.0368	-1457.39
0.9751,0.0249	-1456.82
0.9978,0.0022	-1455.76
0.9591,0.0409	-1457.59
0.9663,0.0337	-1457.24
0.9936,0.0064	-1455.96
0.9613,0.0387	-1457.48
0.9762,0.0238	-1456.77
0.9976,0.0024	-1455.77
0.9568,0.0432	-1457.70
0.9710,0.0290	-1457.01
0.9949,0.0051	-1455.90
0.9691,0.0309	-1457.11
0.9797,0.0203	-1456.60
0.9976,0.0024	-1455.77
0.9507,0.0493	-1458.01
0.9731,0.0269	-1456.91
0.9955,0.0045	-1455.87
0.9592,0.0408	-1457.58
0.9799,0.0201	-1456.59
0.9979,0.0021	-1455.76
0.9490,0.0510	-1458.09
0.9690,0.0310	-1457.11
0.9950,0.0050	-1455.89
0.9550,0.0450	-1457.79
0.9863,0.0137	-1456.29
0.9973,0.0027	-1455.79
0.9539,0.0461	-1457.84
0.9698,0.0302	-1457.07
0.9943,0.0057	-1455.92
0.9557,0.0443	-1457.76
0.9856,0.0144	-1456.32
0.9973,0.0027	-1455.78
0.9662,0.0338	-1457.24
0.9697,0.0303	-1457.08
0.9937,0.0063	-1455.95
0.9511,0.0489	-1457.98
0.9843,0.0157	-1456.38
0.9978,0.0022	-1455.76
0.9714,0.0286	-1457.00
0.9724,0.0276	-1456.95
0.9930,0.0070	-1455.98
0.9572,0.0428	-1457.68
0.9847,0.0153	-1456.37
0.9973,0.0027	-1455.78
0.9691,0.0309	-1457.10
0.9672,0.0328	-1457.20
0.9892,0.0108	-1456.16
0.9620,0.0380	-1457.45
0.9818,0.0182	-1456.50
0.9972,0.0028	-1455.79
0.9658,0.0342	-1457.26
0.9701,0.0299	-1457.06
0.9879,0.0121	-1456.22
0.9597,0.0403	-1457.56
0.9826,0.0174	-1456.47
0.9978,0.0022	-1455.76
0.9596,0.0404	-1457.56
0.9713,0.0287	-1457.00
0.9894,0.0106	-1456.15
0.9463,0.0537	-1458.23
0.9841,0.0159	-1456.39
0.9977,0.0023	-1455.77
0.9557,0.0443	-1457.76
0.9748,0.0252	-1456.83
0.9901,0.0099	-1456.12
0.9289,0.0711	-1459.11
0.9835,0.0165	-1456.42
0.9973,0.0027	-1455.79
0.9594,0.0406	-1457.58
0.9675,0.0325	-1457.18
0.9918,0.0082	-1456.04
0.9231,0.0769	-1459.41
0.9838,0.0162	-1456.41
0.9970,0.0030	-1455.80
0.9490,0.0510	-1458.09
0.9721,0.0279	-1456.96
0.9898,0.0102	-1456.13
0.9278,0.0722	-1459.17
0.9815,0.0185	-1456.52
0.9970,0.0030	-1455.80
0.9503,0.0497	-1458.03
0.9715,0.0285	-1456.99
0.9917,0.0083	-1456.04
0.9415,0.0585	-1458.46
0.9783,0.0217	-1456.67
0.9965,0.0035	-1455.82
0.9505,0.0495	-1458.01
0.9706,0.0294	-1457.03
0.9915,0.0085	-1456.05
0.9545,0.0455	-1457.82
0.9719,0.0281	-1456.97
0.9960,0.0040	-1455.84
0.9594,0.0406	-1457.58
0.9773,0.0227	-1456.72
0.9914,0.0086	-1456.06
0.9577,0.0423	-1457.66
0.9780,0.0220	-1456.68
0.9970,0.0030	-1455.80
0.9722,0.0278	-1456.96
0.9789,0.0211	-1456.64
0.9902,0.0098	-1456.11
0.9578,0.0422	-1457.65
0.9727,0.0273	-1456.93
0.9974,0.0026	-1455.78
0.9703,0.0297	-1457.05
0.9793,0.0207	-1456.62
0.9894,0.0106	-1456.15
0.9530,0.0470	-1457.89
0.9742,0.0258	-1456.86
0.9972,0.0028	-1455.79
0.9734,0.0266	-1456.90
0.9810,0.0190	-1456.54
0.9851,0.0149	-1456.35
0.9574,0.0426	-1457.68
0.9799,0.0201	-1456.59
0.9982,0.0018	-1455.75
0.9767,0.0233	-1456.74
0.9827,0.0173	-1456.46
0.9852,0.0148	-1456.34
0.9541,0.0459	-1457.83
0.9822,0.0178	-1456.48
0.9984,0.0016	-1455.74
0.9763,0.0237	-1456.76
0.9838,0.0162	-1456.41
0.9854,0.0146	-1456.33
0.9522,0.0478	-1457.93
0.9845,0.0155	-1456.38
0.9978,0.0022	-1455.76
0.9713,0.0287	-1457.00
0.9849,0.0151	-1456.36
0.9803,0.0197	-1456.57
0.9487,0.0513	-1458.10
0.9828,0.0172	-1456.46
0.9974,0.0026	-1455.78
0.9567,0.0433	-1457.71
0.9863,0.0137	-1456.29
0.9810,0.0190	-1456.54
0.9420,0.0580	-1458.44
0.9795,0.0205	-1456.61
0.9979,0.0021	-1455.76
0.9565,0.0435	-1457.72
0.9866,0.0134	-1456.28
0.9689,0.0311	-1457.11
0.9317,0.0683	-1458.97
0.9780,0.0220	-1456.68
0.9976,0.0024	-1455.77
0.9523,0.0477	-1457.92
0.9854,0.0146	-1456.33
0.9695,0.0305	-1457.09
0.9327,0.0673	-1458.91
0.9787,0.0213	-1456.65
0.9977,0.0023	-1455.77
0.9466,0.0534	-1458.21
0.9872,0.0128	-1456.25
0.9743,0.0257	-1456.85
0.9189,0.0811	-1459.63
0.9808,0.0192	-1456.55
0.9974,0.0026	-1455.78
0.9583,0.0417	-1457.63
0.9917,0.0083	-1456.04
0.9650,0.0350	-1457.30
0.9287,0.0713	-1459.12
0.9822,0.0178	-1456.48
0.9972,0.0028	-1455.79
0.9623,0.0377	-1457.43
0.9915,0.0085	-1456.05
0.9548,0.0452	-1457.80
0.9297,0.0703	-1459.07
0.9833,0.0167	-1456.43
0.9972,0.0028	-1455.79
0.9581,0.0419	-1457.64
0.9908,0.0092	-1456.08
0.9576,0.0424	-1457.66
0.9394,0.0606	-1458.57
0.9783,0.0217	-1456.67
0.9975,0.0025	-1455.78
0.9675,0.0325	-1457.18
0.9916,0.0084	-1456.05
0.9703,0.0297	-1457.05
0.9236,0.0764	-1459.39
0.9814,0.0186	-1456.52
0.9978,0.0022	-1455.76
0.9735,0.0265	-1456.89
0.9905,0.0095	-1456.10
0.9715,0.0285	-1456.99
0.9493,0.0507	-1458.07
0.9789,0.0211	-1456.64
0.9981,0.0019	-1455.75
0.9617,0.0383	-1457.46
0.9901,0.0099	-1456.12
0.9722,0.0278	-1456.96
0.9409,0.0591	-1458.50
0.9804,0.0196	-1456.57
0.9981,0.0019	-1455.75
0.9526,0.0474	-1457.91
0.9897,0.0103	-1456.14
0.9659,0.0341	-1457.26
0.9505,0.0495	-1458.01
0.9829,0.0171	-1456.45
0.9980,0.0020	-1455.75
0.9490,0.0510	-1458.09
0.9872,0.0128	-1456.25
0.9620,0.0380	-1457.45
0.9404,0.0596	-1458.52
0.9815,0.0185	-1456.52
0.9977,0.0023	-1455.77
0.9506,0.0494	-1458.01
0.9838,0.0162	-1456.41
0.9726,0.0274	-1456.94
0.9310,0.0690	-1459.00
0.9853,0.0147	-1456.34
0.9979,0.0021	-1455.76
0.9449,0.0551	-1458.29
0.9850,0.0150	-1456.35
0.9781,0.0219	-1456.68
0.9260,0.0740	-1459.26
0.9747,0.0253	-1456.84
0.9978,0.0022	-1455.76
0.9567,0.0433	-1457.71
0.9797,0.0203	-1456.60
0.9788,0.0212	-1456.64
0.9320,0.0680	-1458.95
0.9747,0.0253	-1456.84
0.9983,0.0017	-1455.74
0.9435,0.0565	-1458.36
0.9805,0.0195	-1456.56
0.9769,0.0231	-1456.74
0.9176,0.0824	-1459.70
0.9786,0.0214	-1456.65
0.9985,0.0015	-1455.73
0.9437,0.0563	-1458.35
0.9847,0.0153	-1456.37
0.9809,0.0191	-1456.54
0.9236,0.0764	-1459.39
0.9814,0.0186	-1456.52
0.9982,0.0018	-1455.74
0.9435,0.0565	-1458.36
0.9877,0.0123	-1456.22
0.9807,0.0193	-1456.56
0.9348,0.0652	-1458.80
0.9804,0.0196	-1456.57
0.9979,0.0021	-1455.76
0.9491,0.0509	-1458.08
0.9877,0.0123	-1456.23
0.9829,0.0171	-1456.45
0.9370,0.0630	-1458.69
0.9798,0.0202	-1456.60
0.9980,0.0020	-1455.75
0.9609,0.0391	-1457.50
0.9884,0.0116	-1456.19
0.9843,0.0157	-1456.39
0.9442,0.0558	-1458.33
0.9777,0.0223	-1456.69
0.9979,0.0021	-1455.76
0.9597,0.0403	-1457.56
0.9886,0.0114	-1456.19
0.9756,0.0244	-1456.80
0.9415,0.0585	-1458.47
0.9753,0.0247	-1456.81
0.9981,0.0019	-1455.75
0.9551,0.0449	-1457.79
0.9861,0.0139	-1456.30
0.9743,0.0257	-1456.86
0.9572,0.0428	-1457.68
0.9742,0.0258	-1456.86
0.9982,0.0018	-1455.75
0.9559,0.0441	-1457.74
0.9879,0.0121	-1456.22
0.9758,0.0242	-1456.78
0.9521,0.0479	-1457.93
0.9684,0.0316	-1457.14
0.9978,0.0022	-1455.76
0.9702,0.0298	-1457.05
0.9871,0.0129	-1456.25
0.9765,0.0235	-1456.75
0.9560,0.0440	-1457.74
0.9709,0.0291	-1457.02
0.9975,0.0025	-1455.78
0.9788,0.0212	-1456.64
0.9890,0.0110	-1456.16
0.9808,0.0192	-1456.55
0.9487,0.0513	-1458.10
0.9718,0.0282	-1456.98
0.9985,0.0015	-1455.73
0.9779,0.0221	-1456.68
0.9815,0.0185	-1456.51
0.9823,0.0177	-1456.48
0.9607,0.0393	-1457.51
0.9630,0.0370	-1457.40
0.9983,0.0017	-1455.74
0.9801,0.0199	-1456.58
0.9807,0.0193	-1456.55
0.9812,0.0188	-1456.53
0.9645,0.0355	-1457.33
0.9533,0.0467	-1457.88
0.9982,0.0018	-1455.74
0.9820,0.0180	-1456.49
0.9765,0.0235	-1456.75
0.9804,0.0196	-1456.57
0.9603,0.0397	-1457.53
0.9489,0.0511	-1458.09
0.9981,0.0019	-1455.75
0.9787,0.0213	-1456.65
0.9772,0.0228	-1456.72
0.9823,0.0177	-1456.48
0.9535,0.0465	-1457.87
0.9517,0.0483	-1457.95
0.9983,0.0017	-1455.74
0.9805,0.0195	-1456.56
0.9826,0.0174	-1456.46
0.9805,0.0195	-1456.56
0.9542,0.0458	-1457.83
0.9494,0.0506	-1458.07
0.9987,0.0013	-1455.72
0.9785,0.0215	-1456.66
0.9818,0.0182	-1456.50
0.9729,0.0271	-1456.92
0.9499,0.0501	-1458.04
0.9638,0.0362	-1457.36
0.9989,0.0011	-1455.71
0.9844,0.0156	-1456.38
0.9810,0.0190	-1456.54
0.9787,0.0213	-1456.65
0.9482,0.0518	-1458.13
0.9549,0.0451	-1457.80
0.9990,0.0010	-1455.71
0.9849,0.0151	-1456.36
0.9835,0.0165	-1456.42
0.9839,0.0161	-1456.40
0.9512,0.0488	-1457.98
0.9533,0.0467	-1457.87
0.9989,0.0011	-1455.71
0.9819,0.0181	-1456.50
0.9868,0.0132	-1456.27
0.9833,0.0167	-1456.43
0.9565,0.0435	-1457.72
0.9560,0.0440	-1457.74
0.9988,0.0012	-1455.72
0.9779,0.0221	-1456.69
0.9872,0.0128	-1456.25
0.9862,0.0138	-1456.30
0.9641,0.0359	-1457.34
0.9594,0.0406	-1457.58
0.9986,0.0014	-1455.73
0.9724,0.0276	-1456.94
0.9864,0.0136	-1456.29
0.9855,0.0145	-1456.33
0.9636,0.0364	-1457.37
0.9649,0.0351	-1457.31
0.9986,0.0014	-1455.73
0.9710,0.0290	-1457.01
0.9888,0.0112	-1456.17
0.9872,0.0128	-1456.25
0.9664,0.0336	-1457.23
0.9744,0.0256	-1456.85
0.9984,0.0016	-1455.74
0.9754,0.0246	-1456.80
0.9888,0.0112	-1456.18
0.9883,0.0117	-1456.20
0.9616,0.0384	-1457.47
0.9728,0.0272	-1456.93
0.9984,0.0016	-1455.73
0.9734,0.0266	-1456.90
0.9866,0.0134	-1456.28
0.9881,0.0119	-1456.21
0.9648,0.0352	-1457.31
0.9809,0.0191	-1456.54
0.9983,0.0017	-1455.74
0.9731,0.0269	-1456.91
0.9837,0.0163	-1456.41
0.9888,0.0112	-1456.18
0.9673,0.0327	-1457.19
0.9772,0.0228	-1456.72
0.9982,0.0018	-1455.75
0.9734,0.0266	-1456.90
0.9849,0.0151	-1456.36
0.9878,0.0122	-1456.22
0.9669,0.0331	-1457.21
0.9785,0.0215	-1456.66
0.9981,0.0019	-1455.75
0.9656,0.0344	-1457.27
0.9866,0.0134	-1456.28
0.9860,0.0140	-1456.30
0.9629,0.0371	-1457.40
0.9771,0.0229	-1456.72
0.9977,0.0023	-1455.77
0.9668,0.0332	-1457.21
0.9859,0.0141	-1456.31
0.9850,0.0150	-1456.35
0.9634,0.0366	-1457.38
0.9714,0.0286	-1457.00
0.9984,0.0016	-1455.74
0.9736,0.0264	-1456.89
0.9883,0.0117	-1456.20
0.9832,0.0168	-1456.44
0.9661,0.0339	-1457.25
0.9692,0.0308	-1457.10
0.9983,0.0017	-1455.74
0.9790,0.0210	-1456.63
0.9907,0.0093	-1456.09
0.9855,0.0145	-1456.33
0.9603,0.0397	-1457.53
0.9620,0.0380	-1457.45
0.9981,0.0019	-1455.75
0.9808,0.0192	-1456.55
0.9907,0.0093	-1456.09
0.9871,0.0129	-1456.26
0.9625,0.0375	-1457.42
0.9559,0.0441	-1457.74
0.9977,0.0023	-1455.77
0.9818,0.0182	-1456.50
0.9911,0.0089	-1456.07
0.9831,0.0169	-1456.44
0.9673,0.0327	-1457.19
0.9433,0.0567	-1458.37
0.9975,0.0025	-1455.78
0.9846,0.0154	-1456.37
0.9894,0.0106	-1456.15
0.9823,0.0177	-1456.48
0.9718,0.0282	-1456.97
0.9535,0.0465	-1457.87
0.9976,0.0024	-1455.77
0.9838,0.0162	-1456.41
0.9889,0.0111	-1456.17
0.9764,0.0236	-1456.76
0.9741,0.0259	-1456.87
0.9541,0.0459	-1457.83
0.9982,0.0018	-1455.74
0.9848,0.0152	-1456.36
0.9913,0.0087	-1456.06
0.9769,0.0231	-1456.73
0.9753,0.0247	-1456.81
0.9636,0.0364	-1457.37
0.9981,0.0019	-1455.75
0.9842,0.0158	-1456.39
0.9898,0.0102	-1456.13
0.9774,0.0226	-1456.71
0.9739,0.0261	-1456.88
0.9662,0.0338	-1457.24
0.9986,0.0014	-1455.73
0.9822,0.0178	-1456.48
0.9912,0.0088	-1456.06
0.9816,0.0184	-1456.51
0.9739,0.0261	-1456.88
0.9652,0.0348	-1457.29
0.9983,0.0017	-1455.74
0.9854,0.0146	-1456.33
0.9903,0.0097	-1456.11
0.9729,0.0271	-1456.92
0.9805,0.0195	-1456.56
0.9724,0.0276	-1456.94
0.9987,0.0013	-1455.72
0.9839,0.0161	-1456.40
0.9927,0.0073	-1455.99
0.9737,0.0263	-1456.88
0.9762,0.0238	-1456.77
0.9684,0.0316	-1457.14
0.9990,0.0010	-1455.71
0.9847,0.0153	-1456.37
0.9909,0.0091	-1456.08
0.9728,0.0272	-1456.93
0.9759,0.0241	-1456.78
0.9710,0.0290	-1457.02
0.9990,0.0010	-1455.71
0.9844,0.0156	-1456.38
0.9921,0.0079	-1456.03
0.9701,0.0299	-1457.06
0.9810,0.0190	-1456.54
0.9765,0.0235	-1456.75
0.9990,0.0010	-1455.71
0.9826,0.0174	-1456.47
0.9919,0.0081	-1456.03
0.9752,0.0248	-1456.81
0.9754,0.0246	-1456.80
0.9749,0.0251	-1456.83
0.9989,0.0011	-1455.71
0.9856,0.0144	-1456.32
0.9901,0.0099	-1456.12
0.9670,0.0330	-1457.21
0.9731,0.0269	-1456.91
0.9720,0.0280	-1456.96
0.9989,0.0011	-1455.71
0.9834,0.0166	-1456.43
0.9905,0.0095	-1456.10
0.9683,0.0317	-1457.14
0.9748,0.0252	-1456.83
0.9729,0.0271	-1456.92
0.9983,0.0017	-1455.74
0.9832,0.0168	-1456.44
0.9896,0.0104	-1456.14
0.9703,0.0297	-1457.05
0.9760,0.0240	-1456.78
0.9766,0.0234	-1456.75
0.9985,0.0015	-1455.73
0.9846,0.0154	-1456.37
0.9875,0.0125	-1456.24
0.9733,0.0267	-1456.90
0.9800,0.0200	-1456.59
0.9658,0.0342	-1457.26
0.9987,0.0013	-1455.72
0.9803,0.0197	-1456.57
0.9881,0.0119	-1456.21
0.9785,0.0215	-1456.66
0.9812,0.0188	-1456.53
0.9694,0.0306	-1457.09
0.9983,0.0017	-1455.74
0.9753,0.0247	-1456.81
0.9886,0.0114	-1456.18
0.9773,0.0227	-1456.71
0.9827,0.0173	-1456.46
0.9716,0.0284	-1456.98
0.9985,0.0015	-1455.73
0.9574,0.0426	-1457.67
0.9861,0.0139	-1456.30
0.9751,0.0249	-1456.82
0.9857,0.0143	-1456.32
0.9700,0.0300	-1457.06
0.9981,0.0019	-1455.75
0.9640,0.0360	-1457.35
0.9855,0.0145	-1456.33
0.9754,0.0246	-1456.80
0.9828,0.0172	-1456.46
0.9743,0.0257	-1456.86
0.9976,0.0024	-1455.77
0.9647,0.0353	-1457.31
0.9851,0.0149	-1456.35
0.9785,0.0215	-1456.66
0.9825,0.0175	-1456.47
0.9733,0.0267	-1456.91
0.9980,0.0020	-1455.75
0.9552,0.0448	-1457.78
0.9833,0.0167	-1456.43
0.9739,0.0261	-1456.88
0.9811,0.0189	-1456.53
0.9776,0.0224	-1456.70
0.9980,0.0020	-1455.76
0.9491,0.0509	-1458.08
0.9824,0.0176	-1456.48
0.9733,0.0267	-1456.91
0.9834,0.0166	-1456.43
0.9810,0.0190	-1456.54
0.9980,0.0020	-1455.76
0.9414,0.0586	-1458.47
0.9852,0.0148	-1456.35
0.9803,0.0197	-1456.57
0.9838,0.0162	-1456.41
0.9856,0.0144	-1456.33
0.9974,0.0026	-1455.78
0.9414,0.0586	-1458.47
0.9849,0.0151	-1456.36
0.9806,0.0194	-1456.56
0.9814,0.0186	-1456.52
0.9823,0.0177	-1456.48
0.9970,0.0030	-1455.80
0.9391,0.0609	-1458.59
0.9873,0.0127	-1456.25
0.9812,0.0188	-1456.53
0.9793,0.0207	-1456.62
0.9810,0.0190	-1456.54
0.9974,0.0026	-1455.78
0.9323,0.0677	-1458.93
0.9904,0.0096	-1456.10
0.9783,0.0217	-1456.67
0.9817,0.0183	-1456.51
0.9802,0.0198	-1456.58
0.9976,0.0024	-1455.77
0.9438,0.0562	-1458.35
0.9924,0.0076	-1456.01
0.9827,0.0173	-1456.46
0.9808,0.0192	-1456.55
0.9821,0.0179	-1456.49
0.9975,0.0025	-1455.78
0.9568,0.0432	-1457.70
0.9929,0.0071	-1455.99
0.9787,0.0213	-1456.65
0.9789,0.0211	-1456.64
0.9834,0.0166	-1456.43
0.9978,0.0022	-1455.76
0.9520,0.0480	-1457.94
0.9915,0.0085	-1456.05
0.9818,0.0182	-1456.50
0.9793,0.0207	-1456.62
0.9861,0.0139	-1456.30
0.9979,0.0021	-1455.76
0.9585,0.0415	-1457.62
0.9911,0.0089	-1456.07
0.9743,0.0257	-1456.86
0.9766,0.0234	-1456.75
0.9861,0.0139	-1456.30
0.9981,0.0019	-1455.75
0.9494,0.0506	-1458.07
0.9889,0.0111	-1456.17
0.9793,0.0207	-1456.62
0.9822,0.0178	-1456.48
0.9841,0.0159	-1456.39
0.9981,0.0019	-1455.75
0.9668,0.0332	-1457.21
0.9905,0.0095	-1456.10
0.9777,0.0223	-1456.69
0.9841,0.0159	-1456.39
0.9832,0.0168	-1456.44
0.9980,0.0020	-1455.76
0.9592,0.0408	-1457.59
0.9883,0.0117	-1456.20
0.9788,0.0212	-1456.64
0.9854,0.0146	-1456.33
0.9871,0.0129	-1456.25
0.9980,0.0020	-1455.76
0.9614,0.0386	-1457.48
0.9887,0.0113	-1456.18
0.9811,0.0189	-1456.54
0.9856,0.0144	-1456.32
0.9871,0.0129	-1456.25
0.9983,0.0017	-1455.74
0.9470,0.0530	-1458.19
0.9853,0.0147	-1456.34
0.9841,0.0159	-1456.40
0.9864,0.0136	-1456.29
0.9891,0.0109	-1456.16
0.9984,0.0016	-1455.73
0.9468,0.0532	-1458.20
0.9890,0.0110	-1456.17
0.9845,0.0155	-1456.38
0.9835,0.0165	-1456.42
0.9884,0.0116	-1456.20
0.9984,0.0016	-1455.73
0.9424,0.0576	-1458.42
0.9881,0.0119	-1456.21
0.9870,0.0130	-1456.26
0.9828,0.0172	-1456.45
0.9842,0.0158	-1456.39
0.9987,0.0013	-1455.72
0.9411,0.0589	-1458.48
0.9852,0.0148	-1456.34
0.9841,0.0159	-1456.39
0.9856,0.0144	-1456.32
0.9865,0.0135	-1456.28
0.9987,0.0013	-1455.72
0.9410,0.0590	-1458.49
0.9797,0.0203	-1456.60
0.9822,0.0178	-1456.48
0.9838,0.0162	-1456.41
0.9817,0.0183	-1456.50
0.9986,0.0014	-1455.73
0.9427,0.0573	-1458.41
0.9835,0.0165	-1456.42
0.9820,0.0180	-1456.49
0.9811,0.0189	-1456.53
0.9838,0.0162	-1456.41
0.9988,0.0012	-1455.72
0.9451,0.0549	-1458.28
0.9845,0.0155	-1456.37
0.9833,0.0167	-1456.43
0.9790,0.0210	-1456.64
0.9811,0.0189	-1456.53
0.9990,0.0010	-1455.71
0.9543,0.0457	-1457.82
0.9848,0.0152	-1456.36
0.9783,0.0217	-1456.67
0.9814,0.0186	-1456.52
0.9835,0.0165	-1456.42
0.9991,0.0009	-1455.70
0.9466,0.0534	-1458.21
0.9865,0.0135	-1456.28
0.9854,0.0146	-1456.33
0.9812,0.0188	-1456.53
0.9856,0.0144	-1456.33
0.9993,0.0007	-1455.69
0.9413,0.0587	-1458.47
0.9823,0.0177	-1456.48
0.9827,0.0173	-1456.46
0.9791,0.0209	-1456.63
0.9814,0.0186	-1456.52
0.9993,0.0007	-1455.69
0.9451,0.0549	-1458.28
0.9856,0.0144	-1456.33
0.9788,0.0212	-1456.64
0.9712,0.0288	-1457.01
0.9831,0.0169	-1456.44
0.9992,0.0008	-1455.70
0.9486,0.0514	-1458.11
0.9823,0.0177	-1456.48
0.9807,0.0193	-1456.55
0.9668,0.0332	-1457.21
0.9824,0.0176	-1456.47
0.9991,0.0009	-1455.70
0.9454,0.0546	-1458.27
0.9819,0.0181	-1456.50
0.9803,0.0197	-1456.57
0.9638,0.0362	-1457.36
0.9848,0.0152	-1456.36
0.9990,0.0010	-1455.71
0.9421,0.0579	-1458.44
0.9840,0.0160	-1456.40
0.9796,0.0204	-1456.60
0.9590,0.0410	-1457.59
0.9851,0.0149	-1456.35
0.9988,0.0012	-1455.72
0.9496,0.0504	-1458.06
0.9823,0.0177	-1456.48
0.9778,0.0222	-1456.69
0.9586,0.0414	-1457.61
0.9843,0.0157	-1456.39
0.9987,0.0013	-1455.72
0.9475,0.0525	-1458.16
0.9828,0.0172	-1456.45
0.9795,0.0205	-1456.61
0.9539,0.0461	-1457.84
0.9875,0.0125	-1456.24
0.9987,0.0013	-1455.72
0.9385,0.0615	-1458.62
0.9825,0.0175	-1456.47
0.9819,0.0181	-1456.50
0.9531,0.0469	-1457.88
0.9878,0.0122	-1456.22
0.9984,0.0016	-1455.74
0.9355,0.0645	-1458.77
0.9820,0.0180	-1456.49
0.9856,0.0144	-1456.32
0.9574,0.0426	-1457.67
0.9877,0.0123	-1456.23
0.9986,0.0014	-1455.72
0.9519,0.0481	-1457.94
0.9823,0.0177	-1456.48
0.9848,0.0152	-1456.36
0.9521,0.0479	-1457.94
0.9893,0.0107	-1456.16
0.9986,0.0014	-1455.73
0.9445,0.0555	-1458.31
0.9772,0.0228	-1456.72
0.9828,0.0172	-1456.45
0.9514,0.0486	-1457.97
0.9861,0.0139	-1456.30
0.9987,0.0013	-1455.72
0.9456,0.0544	-1458.26
0.9753,0.0247	-1456.81
0.9816,0.0184	-1456.51
0.9527,0.0473	-1457.91
0.9866,0.0134	-1456.28
0.9987,0.0013	-1455.72
0.9352,0.0648	-1458.78
0.9620,0.0380	-1457.45
0.9829,0.0171	-1456.45
0.9612,0.0388	-1457.49
0.9856,0.0144	-1456.33
0.9985,0.0015	-1455.73
0.9316,0.0684	-1458.97
0.9656,0.0344	-1457.27
0.9839,0.0161	-1456.40
0.9636,0.0364	-1457.37
0.9883,0.0117	-1456.20
0.9986,0.0014	-1455.72
0.9268,0.0732	-1459.22
0.9633,0.0367	-1457.39
0.9789,0.0211	-1456.64
0.9637,0.0363	-1457.37
0.9891,0.0109	-1456.16
0.9984,0.0016	-1455.74
0.9395,0.0605	-1458.57
0.9574,0.0426	-1457.67
0.9814,0.0186	-1456.52
0.9546,0.0454	-1457.81
0.9897,0.0103	-1456.14
0.9981,0.0019	-1455.75
0.9403,0.0597	-1458.52
0.9618,0.0382	-1457.46
0.9764,0.0236	-1456.76
0.9551,0.0449	-1457.79
0.9882,0.0118	-1456.20
0.9975,0.0025	-1455.78
0.9488,0.0512	-1458.10
0.9589,0.0411	-1457.60
0.9688,0.0312	-1457.12
0.9574,0.0426	-1457.67
0.9888,0.0112	-1456.18
0.9974,0.0026	-1455.78
0.9543,0.0457	-1457.83
0.9691,0.0309	-1457.11
0.9699,0.0301	-1457.07
0.9672,0.0328	-1457.19
0.9859,0.0141	-1456.31
0.9964,0.0036	-1455.83
0.9425,0.0575	-1458.42
0.9710,0.0290	-1457.01
0.9676,0.0324	-1457.18
0.9721,0.0279	-1456.96
0.9871,0.0129	-1456.25
0.9961,0.0039	-1455.84
0.9441,0.0559	-1458.33
0.9710,0.0290	-1457.01
0.9600,0.0400	-1457.54
0.9634,0.0366	-1457.38
0.9854,0.0146	-1456.33
0.9942,0.0058	-1455.93
0.9518,0.0482	-1457.95
0.9702,0.0298	-1457.05
0.9563,0.0437	-1457.73
0.9627,0.0373	-1457.42
0.9840,0.0160	-1456.40
0.9950,0.0050	-1455.89
0.9600,0.0400	-1457.55
0.9601,0.0399	-1457.54
0.9440,0.0560	-1458.34
0.9579,0.0421	-1457.65
0.9842,0.0158	-1456.39
0.9962,0.0038	-1455.83
0.9624,0.0376	-1457.43
0.9582,0.0418	-1457.63
0.9267,0.0733	-1459.22
0.9522,0.0478	-1457.93
0.9835,0.0165	-1456.42
0.9962,0.0038	-1455.84
0.9667,0.0333	-1457.22
0.9612,0.0388	-1457.49
0.9399,0.0601	-1458.55
0.9586,0.0414	-1457.61
0.9853,0.0147	-1456.34
0.9972,0.0028	-1455.79
0.9699,0.0301	-1457.07
0.9554,0.0446	-1457.77
0.9428,0.0572	-1458.40
0.9568,0.0432	-1457.70
0.9786,0.0214	-1456.65
0.9973,0.0027	-1455.78
0.9519,0.0481	-1457.94
0.9625,0.0375	-1457.42
0.9486,0.0514	-1458.11
0.9633,0.0367	-1457.38
0.9790,0.0210	-1456.64
0.9972,0.0028	-1455.79
0.9477,0.0523	-1458.15
0.9612,0.0388	-1457.49
0.9506,0.0494	-1458.01
0.9688,0.0312	-1457.12
0.9779,0.0221	-1456.68
0.9966,0.0034	-1455.82
0.9578,0.0422	-1457.65
0.9642,0.0358	-1457.34
0.9506,0.0494	-1458.01
0.9658,0.0342	-1457.26
0.9776,0.0224	-1456.70
0.9967,0.0033	-1455.81
0.9500,0.0500	-1458.04
0.9603,0.0397	-1457.53
0.9461,0.0539	-1458.23
0.9596,0.0404	-1457.57
0.9734,0.0266	-1456.90
0.9973,0.0027	-1455.78
0.9527,0.0473	-1457.90
0.9537,0.0463	-1457.86
0.9383,0.0617	-1458.63
0.9600,0.0400	-1457.55
0.9792,0.0208	-1456.63
0.9972,0.0028	-1455.79
0.9445,0.0555	-1458.32
0.9509,0.0491	-1457.99
0.9362,0.0638	-1458.74
0.9649,0.0351	-1457.31
0.9803,0.0197	-1456.57
0.9976,0.0024	-1455.77
0.9431,0.0569	-1458.38
0.9367,0.0633	-1458.71
0.9328,0.0672	-1458.91
0.9655,0.0345	-1457.28
0.9776,0.0224	-1456.70
0.9979,0.0021	-1455.76
0.9444,0.0556	-1458.32
0.9474,0.0526	-1458.17
0.9308,0.0692	-1459.01
0.9656,0.0344	-1457.27
0.9764,0.0236	-1456.76
0.9983,0.0017	-1455.74
0.9194,0.0806	-1459.60
0.9435,0.0565	-1458.36
0.9217,0.0783	-1459.49
0.9637,0.0363	-1457.37
0.9790,0.0210	-1456.63
0.9988,0.0012	-1455.72
0.9276,0.0724	-1459.18
0.9580,0.0420	-1457.64
0.9368,0.0632	-1458.70
0.9623,0.0377	-1457.43
0.9776,0.0224	-1456.70
0.9989,0.0011	-1455.71
0.9329,0.0671	-1458.90
0.9555,0.0445	-1457.76
0.9336,0.0664	-1458.87
0.9646,0.0354	-1457.32
0.9786,0.0214	-1456.65
0.9993,0.0007	-1455.69
0.9328,0.0672	-1458.91
