#isoforms=['ENSG00000110080.SE.2.A.up_ENSG00000110080.SE.2.A.SE1_ENSG00000110080.SE.2.A.dn','ENSG00000110080.SE.2.B.up_ENSG00000110080.SE.2.B.dn']	exon_lens=('ENSG00000110080.SE.2.A.up',61),('ENSG00000110080.SE.2.A.SE1',96),('ENSG00000110080.SE.2.A.dn',190),('ENSG00000110080.SE.2.B.up',61),('ENSG00000110080.SE.2.B.dn',190)	iters=5000	burn_in=500	lag=10	percent_accept=95.17	proposal_type=drift	counts=(0,0):66,(0,1):1,(1,0):101,(1,1):118	assigned_counts=0:210,1:10	chrom=chr11	strand=+	mRNA_starts=126407574,126407574	mRNA_ends=126408496,126408496
sampled_psi	log_score
0.9207,0.0793	-1300.17
0.8886,0.1114	-1296.22
0.8753,0.1247	-1304.82
0.9329,0.0671	-1290.15
0.8867,0.1133	-1304.55
0.8933,0.1067	-1304.49
0.9035,0.0965	-1293.34
0.9237,0.0763	-1287.79
0.9025,0.0975	-1300.06
0.9392,0.0608	-1273.76
0.9037,0.0963	-1300.05
0.9184,0.0816	-1300.12
0.8911,0.1089	-1300.30
0.9111,0.0889	-1293.05
0.9111,0.0889	-1283.74
0.9332,0.0668	-1292.79
0.9112,0.0888	-1300.03
0.9252,0.0748	-1295.28
0.9111,0.0889	-1286.07
0.9201,0.0799	-1297.71
0.9159,0.0841	-1290.52
0.9270,0.0730	-1290.22
0.9065,0.0935	-1304.57
0.9158,0.0842	-1300.07
0.9199,0.0801	-1290.39
0.9329,0.0671	-1279.63
0.9069,0.0931	-1290.93
0.9131,0.0869	-1285.93
0.9249,0.0751	-1297.79
0.9251,0.0749	-1290.25
0.9123,0.0877	-1278.96
0.9200,0.0800	-1300.15
0.9313,0.0687	-1303.19
0.9247,0.0753	-1282.74
0.9281,0.0719	-1292.76
0.9300,0.0700	-1285.00
0.9252,0.0748	-1305.34
0.8962,0.1038	-1306.64
0.9346,0.0654	-1276.85
0.9286,0.0714	-1285.06
0.9349,0.0651	-1284.82
0.9187,0.0813	-1292.85
0.9326,0.0674	-1279.64
0.9219,0.0781	-1295.27
0.9236,0.0764	-1277.82
0.9392,0.0608	-1292.92
0.9220,0.0780	-1292.80
0.9242,0.0758	-1297.78
0.9298,0.0702	-1292.76
0.9337,0.0663	-1282.22
0.9277,0.0723	-1282.55
0.9443,0.0557	-1278.97
0.9191,0.0809	-1292.84
0.9392,0.0608	-1281.97
0.9358,0.0642	-1284.80
0.9204,0.0796	-1285.47
0.9317,0.0683	-1284.93
0.9337,0.0663	-1292.80
0.9176,0.0824	-1285.64
0.9362,0.0638	-1287.47
0.9304,0.0696	-1282.39
0.9117,0.0883	-1290.69
0.9387,0.0613	-1284.72
0.9324,0.0676	-1292.78
0.9219,0.0781	-1295.27
0.9328,0.0672	-1282.27
0.9404,0.0596	-1281.92
0.9050,0.0950	-1291.03
0.9418,0.0582	-1298.58
0.9305,0.0695	-1277.20
0.9274,0.0726	-1300.40
0.9284,0.0716	-1295.32
0.9355,0.0645	-1287.48
0.9155,0.0845	-1285.77
0.9354,0.0646	-1279.46
0.9248,0.0752	-1297.79
0.9245,0.0755	-1295.28
0.9332,0.0668	-1292.79
0.9395,0.0605	-1287.44
0.9057,0.0943	-1293.25
0.9490,0.0510	-1290.47
0.9356,0.0644	-1292.83
0.9205,0.0795	-1295.27
0.9268,0.0732	-1280.06
0.9421,0.0579	-1276.29
0.9043,0.0957	-1297.80
0.9424,0.0576	-1287.45
0.9420,0.0580	-1281.87
0.9284,0.0716	-1305.57
0.9190,0.0810	-1292.85
0.9336,0.0664	-1276.94
0.8976,0.1024	-1306.65
0.9407,0.0593	-1287.44
0.9340,0.0660	-1271.60
0.9478,0.0522	-1290.41
0.9227,0.0773	-1287.83
0.9426,0.0574	-1298.64
0.8787,0.1213	-1306.70
0.9338,0.0662	-1279.56
0.9291,0.0709	-1274.75
0.9606,0.0394	-1278.56
0.9251,0.0749	-1292.77
0.9448,0.0552	-1281.79
0.8851,0.1149	-1312.75
0.9256,0.0744	-1302.85
0.9328,0.0672	-1277.00
0.9601,0.0399	-1275.38
0.9198,0.0802	-1300.15
0.9584,0.0416	-1266.02
0.9067,0.0933	-1304.58
0.9096,0.0904	-1306.95
0.9130,0.0870	-1300.04
0.9484,0.0516	-1275.89
0.9304,0.0696	-1290.17
0.9545,0.0455	-1284.70
0.9057,0.0943	-1293.25
0.8907,0.1093	-1291.92
0.9271,0.0729	-1290.21
0.9529,0.0471	-1275.65
0.8995,0.1005	-1297.91
0.9591,0.0409	-1291.18
0.8983,0.1017	-1306.66
0.8529,0.1471	-1307.56
0.9341,0.0659	-1287.50
0.9518,0.0482	-1278.68
0.9036,0.0964	-1293.34
0.9592,0.0408	-1284.87
0.8942,0.1058	-1308.75
0.8700,0.1300	-1297.40
0.9403,0.0597	-1281.93
0.9429,0.0571	-1276.23
0.9089,0.0911	-1293.12
0.9674,0.0326	-1271.89
0.8878,0.1122	-1312.81
0.8782,0.1218	-1304.74
0.9477,0.0523	-1290.41
0.9389,0.0611	-1273.79
0.9160,0.0840	-1290.52
0.9669,0.0331	-1271.90
0.8754,0.1246	-1298.97
0.8882,0.1118	-1292.10
0.9426,0.0574	-1290.25
0.9419,0.0581	-1281.87
0.9118,0.0882	-1300.03
0.9657,0.0343	-1285.29
0.8995,0.1005	-1300.11
0.8761,0.1239	-1295.01
0.9508,0.0492	-1293.52
0.9430,0.0570	-1281.84
0.9207,0.0793	-1300.17
0.9628,0.0372	-1265.56
0.9056,0.0944	-1313.60
0.8591,0.1409	-1309.09
0.9399,0.0601	-1276.44
0.9388,0.0612	-1287.45
0.9128,0.0872	-1300.04
0.9607,0.0393	-1268.97
0.9172,0.0828	-1285.66
0.8568,0.1432	-1307.39
0.9416,0.0584	-1293.00
0.9315,0.0685	-1287.55
0.9014,0.0986	-1297.86
0.9620,0.0380	-1272.10
0.9201,0.0799	-1302.60
0.8462,0.1538	-1297.68
0.9393,0.0607	-1287.45
0.9339,0.0661	-1274.26
0.9142,0.0858	-1307.15
0.9695,0.0305	-1271.84
0.9192,0.0808	-1292.84
0.8580,0.1420	-1318.12
0.9347,0.0653	-1300.80
0.9373,0.0627	-1298.27
0.9219,0.0781	-1300.20
0.9632,0.0368	-1275.31
0.9190,0.0810	-1290.42
0.8510,0.1490	-1312.88
0.9419,0.0581	-1270.73
0.9325,0.0675	-1282.28
0.9296,0.0704	-1285.02
0.9633,0.0367	-1281.84
0.9288,0.0712	-1297.89
0.8410,0.1590	-1316.53
0.9272,0.0728	-1292.76
0.9402,0.0598	-1284.69
0.9272,0.0728	-1285.13
0.9658,0.0342	-1278.62
0.9337,0.0663	-1274.28
0.8536,0.1464	-1307.53
0.9307,0.0693	-1292.77
0.9438,0.0562	-1281.81
0.9051,0.0949	-1304.55
0.9694,0.0306	-1275.30
0.9406,0.0594	-1295.73
0.8551,0.1449	-1307.46
0.9570,0.0430	-1278.58
0.9383,0.0617	-1284.73
0.8993,0.1007	-1306.68
0.9646,0.0354	-1275.29
0.9481,0.0519	-1281.71
0.8761,0.1239	-1308.71
0.9553,0.0447	-1275.54
0.9537,0.0463	-1281.66
0.8957,0.1043	-1304.48
0.9523,0.0477	-1281.66
0.9441,0.0559	-1281.80
0.8830,0.1170	-1300.58
0.9609,0.0391	-1268.95
0.9535,0.0465	-1275.62
0.8824,0.1176	-1302.62
0.9557,0.0443	-1278.59
0.9438,0.0562	-1284.63
0.9035,0.0965	-1295.58
0.9720,0.0280	-1278.90
0.9489,0.0511	-1293.38
0.8756,0.1244	-1316.52
0.9577,0.0423	-1287.93
0.9454,0.0546	-1281.77
0.9124,0.0876	-1293.01
0.9696,0.0304	-1278.76
0.9437,0.0563	-1281.81
0.8810,0.1190	-1302.66
0.9566,0.0434	-1272.40
0.9595,0.0405	-1281.72
0.9285,0.0715	-1282.50
0.9717,0.0283	-1268.27
0.9396,0.0604	-1279.21
0.8941,0.1059	-1308.75
0.9587,0.0413	-1281.71
0.9660,0.0340	-1271.94
0.9242,0.0758	-1287.77
0.9761,0.0239	-1275.53
0.9522,0.0478	-1266.70
0.9031,0.0969	-1295.59
0.9669,0.0331	-1282.03
0.9654,0.0346	-1281.94
0.9298,0.0702	-1303.10
0.9748,0.0252	-1275.46
0.9495,0.0505	-1267.02
0.9027,0.0973	-1308.97
0.9657,0.0343	-1275.28
0.9718,0.0282	-1278.89
0.9456,0.0544	-1284.62
0.9741,0.0259	-1279.06
0.9587,0.0413	-1272.27
0.8952,0.1048	-1302.34
0.9604,0.0396	-1278.56
0.9764,0.0236	-1275.55
0.9559,0.0441	-1275.52
0.9793,0.0207	-1271.92
0.9688,0.0312	-1271.85
0.9074,0.0926	-1297.75
0.9549,0.0451	-1296.93
0.9710,0.0290	-1264.79
0.9510,0.0490	-1269.81
0.9771,0.0229	-1271.84
0.9675,0.0325	-1275.28
0.8958,0.1042	-1300.18
0.9448,0.0552	-1281.79
0.9741,0.0259	-1279.05
0.9474,0.0526	-1287.51
0.9801,0.0199	-1268.06
0.9653,0.0347	-1275.29
0.8879,0.1121	-1300.40
0.9424,0.0576	-1284.65
0.9762,0.0238	-1271.82
0.9570,0.0430	-1272.37
0.9802,0.0198	-1264.16
0.9675,0.0325	-1268.49
0.8859,0.1141	-1298.42
0.9520,0.0480	-1269.72
0.9796,0.0204	-1279.68
0.9538,0.0462	-1275.60
0.9753,0.0247	-1264.46
0.9657,0.0343	-1271.94
0.9025,0.0975	-1291.16
0.9563,0.0437	-1287.84
0.9831,0.0169	-1276.22
0.9481,0.0519	-1278.81
0.9670,0.0330	-1271.90
0.9648,0.0352	-1271.98
0.8933,0.1067	-1295.99
0.9609,0.0391	-1272.16
0.9807,0.0193	-1264.13
0.9499,0.0501	-1275.80
0.9678,0.0322	-1275.28
0.9675,0.0325	-1278.67
0.9062,0.0938	-1288.69
0.9562,0.0438	-1275.50
0.9812,0.0188	-1268.06
0.9474,0.0526	-1275.94
0.9674,0.0326	-1271.89
0.9612,0.0388	-1268.93
0.9162,0.0838	-1302.47
0.9541,0.0459	-1278.63
0.9813,0.0187	-1264.10
0.9491,0.0509	-1287.55
0.9675,0.0325	-1265.10
0.9642,0.0358	-1285.18
0.9324,0.0676	-1282.28
0.9551,0.0449	-1278.61
0.9805,0.0195	-1260.22
0.9500,0.0500	-1278.74
0.9688,0.0312	-1275.29
0.9697,0.0303	-1271.84
0.9396,0.0604	-1279.21
0.9570,0.0430	-1278.58
0.9840,0.0160	-1268.13
0.9418,0.0582	-1298.58
0.9738,0.0262	-1268.18
0.9782,0.0218	-1268.07
0.9439,0.0561	-1273.34
0.9645,0.0355	-1278.59
0.9754,0.0246	-1268.13
0.9251,0.0749	-1277.69
0.9738,0.0262	-1264.57
0.9791,0.0209	-1268.06
0.9327,0.0673	-1295.41
0.9558,0.0442	-1269.37
0.9770,0.0230	-1268.09
0.9243,0.0757	-1297.78
0.9707,0.0293	-1275.32
0.9827,0.0173	-1268.09
0.9404,0.0596	-1270.89
0.9442,0.0558	-1278.97
0.9762,0.0238	-1275.54
0.9190,0.0810	-1307.42
0.9751,0.0249	-1271.81
0.9803,0.0197	-1264.15
0.9457,0.0543	-1290.34
0.9415,0.0585	-1298.56
0.9809,0.0191	-1268.06
0.9299,0.0701	-1285.00
0.9776,0.0224	-1271.86
0.9816,0.0184	-1268.07
0.9463,0.0537	-1281.75
0.9390,0.0610	-1284.71
0.9792,0.0208	-1268.06
0.9273,0.0727	-1292.76
0.9819,0.0181	-1260.09
0.9842,0.0158	-1268.14
0.9540,0.0460	-1272.56
0.9511,0.0489	-1278.70
0.9731,0.0269	-1264.62
0.9105,0.0895	-1290.75
0.9801,0.0199	-1268.06
0.9837,0.0163	-1272.22
0.9598,0.0402	-1284.90
0.9553,0.0447	-1287.79
0.9709,0.0291	-1268.31
0.8934,0.1066	-1298.11
0.9781,0.0219	-1271.87
0.9791,0.0209	-1260.37
0.9659,0.0341	-1278.63
0.9525,0.0475	-1275.67
0.9669,0.0331	-1282.03
0.8980,0.1020	-1297.96
0.9807,0.0193	-1275.92
0.9777,0.0223	-1268.08
0.9614,0.0386	-1275.34
0.9551,0.0449	-1278.61
0.9677,0.0323	-1265.08
0.9047,0.0953	-1302.29
0.9745,0.0255	-1279.09
0.9730,0.0270	-1271.80
0.9650,0.0350	-1285.24
0.9598,0.0402	-1278.56
0.9727,0.0273	-1275.37
0.9189,0.0811	-1290.42
0.9628,0.0372	-1281.82
0.9720,0.0280	-1271.80
0.9672,0.0328	-1271.90
0.9498,0.0502	-1275.80
0.9650,0.0350	-1271.97
0.9180,0.0820	-1295.28
0.9596,0.0404	-1278.56
0.9754,0.0246	-1264.45
0.9649,0.0351	-1278.60
0.9379,0.0621	-1298.31
0.9691,0.0309	-1271.85
0.9086,0.0914	-1290.84
0.9614,0.0386	-1275.34
0.9782,0.0218	-1264.27
0.9698,0.0302	-1275.30
0.9461,0.0539	-1270.29
0.9728,0.0272	-1271.80
0.9241,0.0759	-1297.77
0.9654,0.0346	-1261.96
0.9772,0.0228	-1271.85
0.9612,0.0388	-1268.93
0.9519,0.0481	-1281.67
0.9741,0.0259	-1268.17
0.9211,0.0789	-1307.55
0.9630,0.0370	-1281.83
0.9752,0.0248	-1264.47
0.9545,0.0455	-1272.53
0.9444,0.0556	-1276.13
0.9728,0.0272	-1268.22
0.9093,0.0907	-1286.20
0.9688,0.0312	-1275.29
0.9731,0.0269	-1271.80
0.9464,0.0536	-1281.75
0.9390,0.0610	-1281.98
0.9781,0.0219	-1279.47
0.9157,0.0843	-1302.46
0.9723,0.0277	-1271.80
0.9721,0.0279	-1275.35
0.9395,0.0605	-1287.44
0.9453,0.0547	-1278.92
0.9802,0.0198	-1275.86
0.9038,0.0962	-1288.85
0.9717,0.0283	-1275.34
0.9746,0.0254	-1275.45
0.9251,0.0749	-1287.74
0.9344,0.0656	-1292.81
0.9840,0.0160	-1264.01
0.9173,0.0827	-1283.25
0.9782,0.0218	-1271.88
0.9698,0.0302	-1271.83
0.9181,0.0819	-1295.28
0.9313,0.0687	-1287.56
0.9810,0.0190	-1272.01
0.9213,0.0787	-1300.19
0.9783,0.0217	-1283.30
0.9688,0.0312	-1271.85
0.9083,0.0917	-1293.15
0.9322,0.0678	-1292.78
0.9788,0.0212	-1268.06
0.9148,0.0852	-1295.31
0.9732,0.0268	-1268.21
0.9721,0.0279	-1278.90
0.9141,0.0859	-1309.51
0.9458,0.0542	-1281.76
0.9790,0.0210	-1271.91
0.9293,0.0707	-1277.30
0.9731,0.0269	-1271.80
0.9716,0.0284	-1271.81
0.9178,0.0822	-1288.04
0.9521,0.0479	-1281.66
0.9812,0.0188	-1272.02
0.9140,0.0860	-1276.41
0.9630,0.0370	-1278.57
0.9748,0.0252	-1264.49
0.9167,0.0833	-1283.30
0.9620,0.0380	-1272.10
0.9820,0.0180	-1264.08
0.9114,0.0886	-1307.02
0.9667,0.0333	-1271.91
0.9725,0.0275	-1264.67
0.9166,0.0834	-1295.29
0.9689,0.0311	-1261.54
0.9800,0.0200	-1271.95
0.9128,0.0872	-1300.04
0.9626,0.0374	-1268.82
0.9739,0.0261	-1268.18
0.9125,0.0875	-1300.04
0.9624,0.0376	-1291.54
0.9766,0.0234	-1275.56
0.8942,0.1058	-1289.55
0.9666,0.0334	-1278.64
0.9794,0.0206	-1268.06
0.9277,0.0723	-1290.20
0.9650,0.0350	-1268.65
0.9703,0.0297	-1268.34
0.9096,0.0904	-1281.56
0.9653,0.0347	-1268.63
0.9836,0.0164	-1264.02
0.9228,0.0772	-1287.83
0.9602,0.0398	-1281.74
0.9728,0.0272	-1261.07
0.9036,0.0964	-1293.34
0.9569,0.0431	-1294.08
0.9766,0.0234	-1279.30
0.9326,0.0674	-1271.76
0.9595,0.0405	-1272.23
0.9681,0.0319	-1271.87
0.9035,0.0965	-1306.76
0.9609,0.0391	-1275.36
0.9739,0.0261	-1279.04
0.9317,0.0683	-1279.71
0.9716,0.0284	-1268.27
0.9652,0.0348	-1271.96
0.8925,0.1075	-1296.03
0.9633,0.0367	-1272.04
0.9789,0.0211	-1271.90
0.9301,0.0699	-1292.76
0.9696,0.0304	-1275.30
0.9580,0.0420	-1275.44
0.8808,0.1192	-1306.67
0.9583,0.0417	-1275.43
0.9822,0.0178	-1272.09
0.9325,0.0675	-1282.28
0.9626,0.0374	-1275.32
0.9537,0.0463	-1272.59
0.8913,0.1087	-1302.40
0.9641,0.0359	-1268.72
0.9794,0.0206	-1279.64
0.9323,0.0677	-1287.54
0.9550,0.0450	-1290.83
0.9578,0.0422	-1284.81
0.9047,0.0953	-1295.54
0.9582,0.0418	-1266.04
0.9784,0.0216	-1260.44
0.9255,0.0745	-1290.24
0.9642,0.0358	-1281.88
0.9534,0.0466	-1275.62
0.9054,0.0946	-1302.30
0.9593,0.0407	-1278.56
0.9791,0.0209	-1283.44
0.9265,0.0735	-1280.09
0.9520,0.0480	-1284.65
0.9534,0.0466	-1275.62
0.8954,0.1046	-1295.89
0.9424,0.0576	-1295.83
0.9832,0.0168	-1259.96
0.9321,0.0679	-1284.92
0.9547,0.0453	-1281.66
0.9408,0.0592	-1268.08
0.9001,0.0999	-1295.70
0.9444,0.0556	-1284.63
0.9853,0.0147	-1263.98
0.9347,0.0653	-1282.17
0.9493,0.0507	-1284.62
0.9607,0.0393	-1265.77
0.8719,0.1281	-1303.01
0.9320,0.0680	-1292.78
0.9871,0.0129	-1268.32
0.9392,0.0608	-1281.97
0.9554,0.0446	-1278.60
0.9579,0.0421	-1272.32
0.8606,0.1394	-1316.33
0.9491,0.0509	-1284.62
0.9903,0.0097	-1273.32
0.9188,0.0812	-1312.26
0.9500,0.0500	-1296.40
0.9598,0.0402	-1291.24
0.9098,0.0902	-1288.47
0.9516,0.0484	-1281.67
0.9897,0.0103	-1259.47
0.9194,0.0806	-1287.97
0.9540,0.0460	-1281.66
0.9679,0.0321	-1278.69
0.8982,0.1018	-1289.24
0.9517,0.0483	-1281.67
0.9882,0.0118	-1268.42
0.9187,0.0813	-1304.98
0.9402,0.0598	-1290.20
0.9699,0.0301	-1264.89
0.8881,0.1119	-1298.32
0.9568,0.0432	-1269.28
0.9925,0.0075	-1264.25
0.9443,0.0557	-1278.97
0.9411,0.0589	-1290.21
0.9659,0.0341	-1265.25
0.8850,0.1150	-1298.46
0.9507,0.0493	-1272.80
0.9934,0.0066	-1259.36
0.9539,0.0461	-1275.60
0.9361,0.0639	-1276.73
0.9602,0.0398	-1269.01
0.8710,0.1290	-1320.24
0.9421,0.0579	-1273.50
0.9924,0.0076	-1264.24
0.9597,0.0403	-1281.73
0.9480,0.0520	-1275.91
0.9596,0.0404	-1272.22
0.8644,0.1356	-1307.08
0.9386,0.0614	-1279.27
0.9923,0.0077	-1259.37
0.9563,0.0437	-1281.67
0.9525,0.0475	-1278.66
0.9612,0.0388	-1278.56
0.8634,0.1366	-1305.27
0.9463,0.0537	-1296.10
0.9912,0.0088	-1259.41
0.9526,0.0474	-1287.66
0.9547,0.0453	-1269.47
0.9658,0.0342	-1278.62
0.8695,0.1305	-1303.12
0.9503,0.0497	-1284.63
0.9913,0.0087	-1264.13
0.9432,0.0568	-1270.59
0.9605,0.0395	-1288.13
0.9672,0.0328	-1285.43
0.8639,0.1361	-1308.95
0.9492,0.0508	-1272.91
0.9906,0.0094	-1268.75
0.9330,0.0670	-1287.52
0.9580,0.0420	-1281.69
0.9701,0.0299	-1268.35
0.8574,0.1426	-1305.57
0.9575,0.0425	-1278.57
0.9917,0.0083	-1259.39
0.9182,0.0818	-1283.19
0.9621,0.0379	-1272.09
0.9735,0.0265	-1260.99
0.8816,0.1184	-1308.67
0.9582,0.0418	-1269.17
0.9905,0.0095	-1268.72
0.9253,0.0747	-1295.28
0.9534,0.0466	-1281.66
0.9757,0.0243	-1282.90
0.8892,0.1108	-1298.27
0.9591,0.0409	-1281.71
0.9899,0.0101	-1259.46
0.9193,0.0807	-1295.27
0.9544,0.0456	-1272.54
0.9737,0.0263	-1264.58
0.8948,0.1052	-1300.20
0.9649,0.0351	-1268.66
0.9915,0.0085	-1264.16
0.9160,0.0840	-1283.35
0.9502,0.0498	-1278.73
0.9581,0.0419	-1281.70
0.8969,0.1031	-1302.32
0.9668,0.0332	-1275.28
0.9902,0.0098	-1264.06
0.9197,0.0803	-1292.83
0.9336,0.0664	-1292.80
0.9572,0.0428	-1275.47
0.8931,0.1069	-1306.61
0.9692,0.0308	-1271.84
0.9871,0.0129	-1263.98
0.9173,0.0827	-1283.25
0.9244,0.0756	-1285.26
0.9641,0.0359	-1278.59
0.8899,0.1101	-1298.25
0.9772,0.0228	-1283.12
0.9821,0.0179	-1268.08
0.9141,0.0859	-1288.23
0.9170,0.0830	-1307.30
0.9721,0.0279	-1282.45
0.8781,0.1219	-1298.82
0.9735,0.0265	-1271.80
0.9772,0.0228	-1264.33
0.9313,0.0687	-1287.56
0.9335,0.0665	-1287.51
0.9737,0.0263	-1271.80
0.8745,0.1255	-1308.73
0.9754,0.0246	-1279.17
0.9760,0.0240	-1271.82
0.9345,0.0655	-1292.81
0.9325,0.0675	-1295.41
0.9756,0.0244	-1271.81
0.8996,0.1004	-1297.91
0.9816,0.0184	-1276.03
0.9773,0.0227	-1268.09
0.9320,0.0680	-1287.54
0.9346,0.0654	-1284.83
0.9768,0.0232	-1286.79
0.9199,0.0801	-1285.51
0.9840,0.0160	-1264.01
0.9779,0.0221	-1260.49
0.9229,0.0771	-1292.79
0.9312,0.0688	-1292.77
0.9783,0.0217	-1268.07
0.9046,0.0954	-1304.54
0.9850,0.0150	-1268.17
0.9687,0.0313	-1261.56
0.9193,0.0807	-1285.54
0.9271,0.0729	-1297.84
0.9772,0.0228	-1264.33
0.9057,0.0943	-1300.04
0.9835,0.0165	-1268.11
0.9688,0.0312	-1271.85
0.9192,0.0808	-1302.57
0.9399,0.0601	-1290.19
0.9755,0.0245	-1271.81
0.8752,0.1248	-1295.08
0.9817,0.0183	-1276.04
0.9715,0.0285	-1268.28
0.9348,0.0652	-1268.85
0.9297,0.0703	-1303.09
0.9657,0.0343	-1268.61
0.8680,0.1320	-1288.12
0.9778,0.0222	-1279.43
0.9795,0.0205	-1271.93
0.9436,0.0564	-1276.18
0.9279,0.0721	-1282.54
0.9643,0.0357	-1278.59
0.8795,0.1205	-1314.64
0.9800,0.0200	-1260.27
0.9786,0.0214	-1264.24
0.9383,0.0617	-1290.17
0.9389,0.0611	-1284.72
0.9659,0.0341	-1271.94
0.8863,0.1137	-1302.51
0.9749,0.0251	-1268.15
0.9785,0.0215	-1264.25
0.9514,0.0486	-1278.70
0.9375,0.0625	-1284.75
0.9635,0.0365	-1272.03
0.8829,0.1171	-1306.64
0.9744,0.0256	-1264.52
0.9796,0.0204	-1275.80
0.9423,0.0577	-1287.45
0.9373,0.0627	-1284.75
0.9623,0.0377	-1285.04
0.8972,0.1028	-1293.65
0.9755,0.0245	-1264.44
0.9843,0.0157	-1272.28
0.9364,0.0636	-1276.71
0.9315,0.0685	-1303.21
0.9650,0.0350	-1265.34
0.8754,0.1246	-1300.92
0.9689,0.0311	-1285.61
0.9856,0.0144	-1268.20
0.9502,0.0498	-1275.78
0.9238,0.0762	-1285.29
0.9589,0.0411	-1269.11
0.8995,0.1005	-1300.10
0.9706,0.0294	-1275.32
0.9847,0.0153	-1263.99
0.9454,0.0546	-1301.73
0.9334,0.0666	-1298.07
0.9611,0.0389	-1281.76
0.9064,0.0936	-1295.49
0.9700,0.0300	-1264.87
0.9864,0.0136	-1259.69
0.9573,0.0427	-1275.46
0.9391,0.0609	-1292.92
0.9636,0.0364	-1281.86
0.9194,0.0806	-1305.01
0.9685,0.0315	-1275.29
0.9877,0.0123	-1281.51
0.9450,0.0550	-1296.00
0.9338,0.0662	-1290.15
0.9601,0.0399	-1294.46
0.9215,0.0785	-1307.58
0.9709,0.0291	-1275.32
0.9902,0.0098	-1268.67
0.9502,0.0498	-1293.47
0.9287,0.0713	-1279.92
0.9575,0.0425	-1272.34
0.9043,0.0957	-1304.54
0.9614,0.0386	-1268.92
0.9904,0.0096	-1259.44
0.9454,0.0546	-1276.07
0.9268,0.0732	-1295.30
0.9630,0.0370	-1275.31
0.8943,0.1057	-1302.35
0.9601,0.0399	-1284.92
0.9910,0.0090	-1259.41
0.9407,0.0593	-1284.68
0.9265,0.0735	-1285.16
0.9632,0.0368	-1265.52
0.8773,0.1227	-1304.76
0.9662,0.0338	-1281.98
0.9913,0.0087	-1259.40
0.9344,0.0656	-1287.50
0.9215,0.0785	-1285.42
0.9625,0.0375	-1272.07
0.8843,0.1157	-1294.43
0.9662,0.0338	-1275.28
0.9914,0.0086	-1268.89
0.9463,0.0537	-1281.75
0.9243,0.0757	-1290.27
0.9665,0.0335	-1285.37
0.8794,0.1206	-1306.69
0.9681,0.0319	-1265.04
0.9919,0.0081	-1268.99
0.9381,0.0619	-1290.17
0.9179,0.0821	-1300.11
0.9630,0.0370	-1281.83
0.8809,0.1191	-1304.67
0.9689,0.0311	-1268.41
0.9929,0.0071	-1259.37
0.9381,0.0619	-1290.17
0.9231,0.0769	-1290.30
0.9629,0.0371	-1278.57
0.8849,0.1151	-1310.70
0.9692,0.0308	-1264.94
0.9946,0.0054	-1264.60
0.9234,0.0766	-1305.23
0.9251,0.0749	-1277.68
0.9708,0.0292	-1275.32
0.8921,0.1079	-1304.49
0.9671,0.0329	-1268.52
0.9948,0.0052	-1259.39
0.9047,0.0953	-1286.54
0.8903,0.1097	-1291.95
0.9751,0.0249	-1264.47
0.8996,0.1004	-1306.68
0.9568,0.0432	-1278.58
0.9954,0.0046	-1259.43
0.9084,0.0916	-1297.73
0.9117,0.0883	-1288.36
0.9781,0.0219	-1271.87
0.8933,0.1067	-1295.99
0.9639,0.0361	-1288.44
0.9956,0.0044	-1259.44
0.8770,0.1230	-1308.70
0.8975,0.1025	-1306.65
0.9763,0.0237	-1271.83
0.9061,0.0939	-1293.23
0.9554,0.0446	-1269.40
0.9957,0.0043	-1259.45
0.8504,0.1496	-1318.11
0.8977,0.1023	-1293.62
0.9778,0.0222	-1275.65
0.9044,0.0956	-1304.54
0.9696,0.0304	-1268.38
0.9951,0.0049	-1259.41
0.8613,0.1387	-1309.02
0.9129,0.0871	-1278.89
0.9767,0.0233	-1271.83
0.8877,0.1123	-1306.61
0.9797,0.0203	-1264.18
0.9938,0.0062	-1264.45
0.8731,0.1269	-1302.96
0.9170,0.0830	-1283.28
0.9767,0.0233	-1268.10
0.9108,0.0892	-1290.74
0.9691,0.0309	-1275.29
0.9940,0.0060	-1264.48
0.8671,0.1329	-1293.87
0.9018,0.0982	-1291.20
0.9714,0.0286	-1271.81
0.8924,0.1076	-1304.49
0.9664,0.0336	-1268.56
0.9936,0.0064	-1259.36
0.8774,0.1226	-1298.85
0.9201,0.0799	-1280.61
0.9682,0.0318	-1282.12
0.8572,0.1428	-1310.95
0.9612,0.0388	-1281.77
0.9947,0.0053	-1259.39
0.8686,0.1314	-1295.61
0.9154,0.0846	-1295.31
0.9677,0.0323	-1278.68
0.8790,0.1210	-1312.65
0.9562,0.0438	-1278.59
0.9924,0.0076	-1259.37
0.8887,0.1113	-1294.14
0.8986,0.1014	-1297.94
0.9687,0.0313	-1271.86
0.8706,0.1294	-1297.36
0.9601,0.0399	-1269.01
0.9912,0.0088	-1259.40
0.8976,0.1024	-1308.82
0.8905,0.1095	-1304.51
0.9724,0.0276	-1271.80
0.8957,0.1043	-1291.57
0.9686,0.0314	-1268.43
0.9897,0.0103	-1259.47
0.9064,0.0936	-1286.41
0.8834,0.1166	-1300.56
0.9697,0.0303	-1278.77
0.8787,0.1213	-1310.66
0.9704,0.0296	-1268.33
0.9914,0.0086	-1264.15
0.9204,0.0796	-1283.03
0.9144,0.0856	-1290.58
0.9638,0.0362	-1275.30
0.8783,0.1217	-1300.78
0.9685,0.0315	-1278.71
0.9908,0.0092	-1259.42
0.9206,0.0794	-1297.72
0.9174,0.0826	-1297.69
0.9591,0.0409	-1269.09
0.9125,0.0875	-1297.69
0.9740,0.0260	-1279.04
0.9906,0.0094	-1264.09
0.9106,0.0894	-1290.75
0.9158,0.0842	-1290.53
0.9536,0.0464	-1272.59
0.9195,0.0805	-1290.40
0.9739,0.0261	-1271.80
0.9927,0.0073	-1274.11
0.9097,0.0903	-1288.48
0.9291,0.0709	-1277.32
0.9424,0.0576	-1284.65
0.9194,0.0806	-1305.01
0.9689,0.0311	-1268.41
0.9938,0.0062	-1259.37
0.8922,0.1078	-1293.93
0.9321,0.0679	-1282.30
0.9480,0.0520	-1278.81
0.9190,0.0810	-1290.41
0.9684,0.0316	-1271.86
0.9925,0.0075	-1259.37
0.8864,0.1136	-1304.56
0.9213,0.0787	-1302.65
0.9625,0.0375	-1272.08
0.9121,0.0879	-1283.66
0.9615,0.0385	-1281.78
0.9915,0.0085	-1259.40
0.9125,0.0875	-1290.66
0.9013,0.0987	-1291.23
0.9675,0.0325	-1278.67
0.9281,0.0719	-1292.76
0.9725,0.0275	-1275.37
0.9879,0.0121	-1268.38
0.9077,0.0923	-1281.74
0.9187,0.0813	-1285.58
0.9699,0.0301	-1282.25
0.9153,0.0847	-1292.93
0.9709,0.0291	-1261.29
0.9871,0.0129	-1259.64
0.9186,0.0814	-1297.70
0.9206,0.0794	-1287.91
0.9701,0.0299	-1271.83
0.9077,0.0923	-1304.60
0.9644,0.0356	-1275.29
0.9873,0.0127	-1268.33
0.9184,0.0816	-1283.17
0.9189,0.0811	-1287.99
0.9682,0.0318	-1271.87
0.9096,0.0904	-1297.72
0.9645,0.0355	-1285.20
0.9875,0.0125	-1268.35
0.9075,0.0925	-1293.18
0.9064,0.0936	-1304.57
0.9705,0.0295	-1282.30
0.9126,0.0874	-1300.04
0.9674,0.0326	-1275.28
0.9878,0.0122	-1259.59
0.9157,0.0843	-1290.53
0.9172,0.0828	-1288.07
0.9670,0.0330	-1275.28
0.9066,0.0934	-1297.76
0.9708,0.0292	-1264.80
0.9858,0.0142	-1268.22
0.9080,0.0920	-1293.16
0.9312,0.0688	-1282.35
0.9649,0.0351	-1278.60
0.8804,0.1196	-1298.69
0.9717,0.0283	-1271.81
0.9833,0.0167	-1272.18
0.8634,0.1366	-1316.34
0.9383,0.0617	-1279.28
0.9604,0.0396	-1272.18
0.8777,0.1223	-1288.98
0.9676,0.0324	-1275.28
0.9849,0.0151	-1263.99
0.9085,0.0915	-1293.14
0.9399,0.0601	-1276.44
0.9564,0.0436	-1266.24
0.8942,0.1058	-1291.67
0.9615,0.0385	-1281.78
0.9823,0.0177	-1272.10
0.9176,0.0824	-1300.10
0.9460,0.0540	-1273.17
0.9588,0.0412	-1269.12
0.9086,0.0914	-1311.51
0.9628,0.0372	-1288.33
0.9768,0.0232	-1268.10
0.9205,0.0795	-1292.82
0.9585,0.0415	-1278.56
0.9562,0.0438	-1287.84
0.8955,0.1045	-1300.18
0.9708,0.0292	-1275.32
0.9778,0.0222	-1283.21
0.9058,0.0942	-1293.25
0.9563,0.0437	-1275.50
0.9562,0.0438	-1287.84
0.8960,0.1040	-1295.87
0.9731,0.0269	-1268.21
0.9783,0.0217	-1271.88
0.9063,0.0937	-1284.15
0.9568,0.0432	-1294.07
0.9526,0.0474	-1290.67
0.9172,0.0828	-1295.29
0.9731,0.0269	-1278.98
0.9819,0.0181	-1276.06
0.8904,0.1096	-1296.13
0.9499,0.0501	-1272.86
0.9553,0.0447	-1278.60
0.9106,0.0894	-1297.71
0.9744,0.0256	-1271.80
0.9835,0.0165	-1259.94
0.8803,0.1197	-1312.66
0.9427,0.0573	-1279.04
0.9597,0.0403	-1288.07
0.9013,0.0987	-1295.66
0.9732,0.0268	-1271.80
0.9818,0.0182	-1272.06
0.9012,0.0988	-1300.08
0.9470,0.0530	-1293.26
0.9595,0.0405	-1278.56
0.9146,0.0854	-1300.06
0.9702,0.0298	-1278.79
0.9817,0.0183	-1264.09
0.9108,0.0892	-1288.41
0.9406,0.0594	-1281.92
0.9698,0.0302	-1282.24
0.8923,0.1077	-1302.38
0.9645,0.0355	-1281.90
0.9784,0.0216	-1275.70
0.9072,0.0928	-1290.91
0.9411,0.0589	-1279.13
0.9574,0.0426	-1266.12
0.8766,0.1234	-1302.82
0.9592,0.0408	-1272.24
0.9787,0.0213	-1275.72
0.9114,0.0886	-1297.70
0.9390,0.0610	-1290.18
0.9525,0.0475	-1290.66
0.9051,0.0949	-1302.29
0.9542,0.0458	-1278.62
0.9723,0.0277	-1264.69
0.9161,0.0839	-1292.91
0.9207,0.0793	-1285.46
0.9536,0.0464	-1290.73
0.9164,0.0836	-1295.29
0.9566,0.0434	-1287.86
0.9799,0.0201	-1275.83
0.9263,0.0737	-1295.29
0.9271,0.0729	-1297.84
0.9424,0.0576	-1287.45
0.9250,0.0750	-1305.33
0.9548,0.0452	-1275.56
0.9818,0.0182	-1268.07
0.9268,0.0732	-1290.22
0.9261,0.0739	-1295.29
0.9134,0.0866	-1288.26
0.9282,0.0718	-1290.20
0.9537,0.0463	-1284.68
0.9816,0.0184	-1264.09
0.9316,0.0684	-1292.77
0.9240,0.0760	-1305.26
0.9255,0.0745	-1280.17
0.9303,0.0697	-1287.58
0.9537,0.0463	-1281.66
0.9844,0.0156	-1288.88
0.9477,0.0523	-1275.93
0.9244,0.0756	-1287.76
0.9214,0.0786	-1300.19
0.9379,0.0621	-1284.74
0.9495,0.0505	-1275.82
0.9857,0.0143	-1272.45
0.9364,0.0636	-1279.40
0.9033,0.0967	-1286.65
0.9299,0.0701	-1292.76
0.9381,0.0619	-1279.30
0.9521,0.0479	-1290.64
0.9837,0.0163	-1264.02
0.9429,0.0571	-1287.45
0.8855,0.1145	-1298.44
0.9320,0.0680	-1295.39
0.9316,0.0684	-1287.55
0.9464,0.0536	-1296.10
0.9834,0.0166	-1264.03
0.9539,0.0461	-1278.63
0.8898,0.1102	-1302.43
0.9389,0.0611	-1295.64
0.9329,0.0671	-1300.68
0.9572,0.0428	-1284.79
0.9872,0.0128	-1263.98
0.9497,0.0503	-1290.50
0.8844,0.1156	-1300.52
0.9358,0.0642	-1303.55
0.9439,0.0561	-1281.81
0.9595,0.0405	-1269.06
0.9872,0.0128	-1290.07
0.9470,0.0530	-1278.85
0.8964,0.1036	-1300.16
0.9420,0.0580	-1276.29
0.9468,0.0532	-1275.98
0.9547,0.0453	-1281.66
0.9840,0.0160	-1259.89
0.9408,0.0592	-1279.15
0.8905,0.1095	-1304.51
0.9319,0.0681	-1274.46
0.9264,0.0736	-1297.83
0.9477,0.0523	-1281.72
0.9845,0.0155	-1268.15
0.9581,0.0419	-1275.44
0.9089,0.0911	-1290.83
0.9323,0.0677	-1290.16
0.9352,0.0648	-1287.48
0.9588,0.0412	-1300.59
0.9800,0.0200	-1271.95
0.9538,0.0462	-1284.69
0.9151,0.0849	-1281.04
0.9382,0.0618	-1284.73
0.9387,0.0613	-1276.53
0.9618,0.0382	-1278.56
0.9760,0.0240	-1275.53
0.9550,0.0450	-1275.55
0.9161,0.0839	-1288.13
0.9331,0.0669	-1298.06
0.9337,0.0663	-1298.09
0.9578,0.0422	-1281.69
0.9737,0.0263	-1264.57
0.9551,0.0449	-1278.61
0.9178,0.0822	-1295.28
0.9491,0.0509	-1290.47
0.9339,0.0661	-1276.91
0.9461,0.0539	-1293.21
0.9706,0.0294	-1261.33
0.9524,0.0476	-1287.65
0.9219,0.0781	-1310.08
0.9455,0.0545	-1287.47
0.9398,0.0602	-1276.45
0.9413,0.0587	-1284.67
0.9686,0.0314	-1282.15
0.9538,0.0462	-1287.72
0.9422,0.0578	-1287.44
0.9389,0.0611	-1279.25
0.9242,0.0758	-1280.27
0.9439,0.0561	-1290.28
0.9698,0.0302	-1268.37
0.9465,0.0535	-1273.13
0.9529,0.0471	-1296.69
0.9359,0.0641	-1279.43
0.9129,0.0871	-1292.99
0.9560,0.0440	-1281.67
0.9622,0.0378	-1268.85
0.9316,0.0684	-1292.77
0.9450,0.0550	-1278.94
0.9340,0.0660	-1284.85
0.9182,0.0818	-1288.02
0.9426,0.0574	-1293.04
0.9543,0.0457	-1284.70
0.9213,0.0787	-1280.51
0.9476,0.0524	-1290.41
0.9395,0.0605	-1287.44
0.9136,0.0864	-1278.82
0.9384,0.0616	-1284.73
0.9489,0.0511	-1296.31
0.9317,0.0683	-1290.16
0.9463,0.0537	-1296.09
0.9343,0.0657	-1290.15
0.9175,0.0825	-1285.65
0.9334,0.0666	-1276.95
0.9480,0.0520	-1273.00
0.9326,0.0674	-1287.53
0.9643,0.0357	-1278.59
0.9137,0.0863	-1302.41
0.9266,0.0734	-1285.15
0.9273,0.0727	-1285.12
0.9445,0.0555	-1267.62
0.9353,0.0647	-1295.50
0.9650,0.0350	-1275.29
0.9204,0.0796	-1287.92
0.9350,0.0650	-1284.82
0.9356,0.0644	-1287.48
0.9435,0.0565	-1281.82
0.9475,0.0525	-1278.83
0.9576,0.0424	-1294.15
0.9190,0.0810	-1287.99
0.9289,0.0711	-1290.19
0.9445,0.0555	-1293.13
0.9522,0.0478	-1284.66
0.9392,0.0608	-1281.97
0.9390,0.0610	-1287.45
0.9230,0.0770	-1290.30
0.9397,0.0603	-1281.95
0.9420,0.0580	-1287.44
0.9575,0.0425	-1266.11
0.9413,0.0587	-1295.77
0.9418,0.0582	-1287.44
0.9287,0.0713	-1287.62
0.9304,0.0696	-1279.80
0.9399,0.0601	-1290.19
0.9409,0.0591	-1287.44
0.9510,0.0490	-1275.74
0.9510,0.0490	-1281.67
0.9389,0.0611	-1284.71
0.9273,0.0727	-1290.21
0.9342,0.0658	-1290.15
0.9622,0.0378	-1272.09
0.9561,0.0439	-1278.59
0.9499,0.0501	-1290.51
0.9402,0.0598	-1276.42
0.9267,0.0733	-1280.07
0.9299,0.0701	-1295.35
0.9689,0.0311	-1271.85
0.9560,0.0440	-1290.90
0.9525,0.0475	-1290.66
0.9384,0.0616	-1290.17
0.9328,0.0672	-1290.16
0.9284,0.0716	-1282.51
0.9658,0.0342	-1275.28
0.9445,0.0555	-1276.12
0.9607,0.0393	-1281.75
0.9421,0.0579	-1279.08
0.9140,0.0860	-1288.24
0.9251,0.0749	-1285.22
0.9711,0.0289	-1275.33
0.9469,0.0531	-1281.74
0.9520,0.0480	-1284.65
0.9563,0.0437	-1269.33
0.9164,0.0836	-1290.51
0.9243,0.0757	-1282.76
0.9713,0.0287	-1264.77
0.9617,0.0383	-1272.12
0.9413,0.0587	-1287.44
0.9558,0.0442	-1281.67
0.9099,0.0901	-1300.03
0.9358,0.0642	-1282.12
0.9679,0.0321	-1278.69
0.9607,0.0393	-1275.36
0.9523,0.0477	-1290.65
0.9599,0.0401	-1278.56
0.9116,0.0884	-1295.37
0.9338,0.0662	-1282.21
0.9691,0.0309	-1268.40
0.9603,0.0397	-1269.00
0.9442,0.0558	-1301.61
0.9585,0.0415	-1278.56
0.9017,0.0983	-1306.72
0.9362,0.0638	-1287.47
0.9713,0.0287	-1282.37
0.9590,0.0410	-1278.56
0.9293,0.0707	-1287.61
0.9647,0.0353	-1285.21
0.8897,0.1103	-1306.60
0.9523,0.0477	-1284.66
0.9719,0.0281	-1268.26
0.9586,0.0414	-1275.42
0.9251,0.0749	-1290.25
0.9597,0.0403	-1272.22
0.8934,0.1066	-1295.98
0.9579,0.0421	-1269.19
0.9729,0.0271	-1275.38
0.9412,0.0588	-1281.90
0.9305,0.0695	-1297.95
0.9417,0.0583	-1284.66
0.8725,0.1275	-1301.06
0.9508,0.0492	-1287.60
0.9705,0.0295	-1278.81
0.9455,0.0545	-1281.77
0.9236,0.0764	-1285.30
0.9387,0.0613	-1287.45
0.8722,0.1278	-1303.00
0.9373,0.0627	-1276.64
0.9689,0.0311	-1278.73
0.9373,0.0627	-1287.46
0.9343,0.0657	-1300.77
0.9414,0.0586	-1284.67
0.8908,0.1092	-1315.00
0.9423,0.0577	-1276.28
0.9711,0.0289	-1268.30
0.9484,0.0516	-1287.53
0.9348,0.0652	-1279.50
0.9477,0.0523	-1281.72
0.9019,0.0981	-1293.41
0.9522,0.0478	-1278.67
0.9733,0.0267	-1268.20
0.9424,0.0576	-1287.45
0.9275,0.0725	-1280.01
0.9469,0.0531	-1281.74
0.8972,0.1028	-1297.98
0.9383,0.0617	-1282.01
0.9683,0.0317	-1265.03
0.9493,0.0507	-1299.27
0.9340,0.0660	-1274.25
0.9403,0.0597	-1298.47
0.9007,0.0993	-1284.65
0.9360,0.0640	-1290.16
0.9610,0.0390	-1284.96
0.9488,0.0512	-1272.94
0.9344,0.0656	-1282.18
0.9403,0.0597	-1298.47
0.9028,0.0972	-1308.97
0.9218,0.0782	-1312.53
0.9701,0.0299	-1271.83
0.9500,0.0500	-1287.57
0.9281,0.0719	-1282.52
0.9335,0.0665	-1287.51
0.9162,0.0838	-1292.90
0.9199,0.0801	-1285.50
0.9717,0.0283	-1264.73
0.9519,0.0481	-1275.69
0.9298,0.0702	-1290.18
0.9397,0.0603	-1290.19
0.9076,0.0924	-1300.03
0.8992,0.1008	-1297.92
0.9740,0.0260	-1268.18
0.9592,0.0408	-1284.88
0.9176,0.0824	-1295.28
0.9481,0.0519	-1287.52
0.9168,0.0832	-1290.49
0.9039,0.0961	-1295.57
0.9726,0.0274	-1264.66
0.9620,0.0380	-1281.79
0.9264,0.0736	-1272.50
0.9531,0.0469	-1284.67
0.9086,0.0914	-1293.14
0.9132,0.0868	-1300.04
0.9670,0.0330	-1285.41
0.9665,0.0335	-1271.92
0.9234,0.0766	-1290.29
0.9419,0.0581	-1284.66
0.9149,0.0851	-1290.56
0.9173,0.0827	-1292.88
0.9742,0.0258	-1271.80
0.9602,0.0398	-1272.19
0.9307,0.0693	-1279.78
0.9323,0.0677	-1295.40
0.9314,0.0686	-1274.51
0.9153,0.0847	-1300.07
0.9760,0.0240	-1279.23
0.9530,0.0470	-1269.62
0.9346,0.0654	-1284.83
0.9287,0.0713	-1277.36
0.9296,0.0704	-1285.02
0.9206,0.0794	-1287.92
0.9782,0.0218	-1268.07
0.9511,0.0489	-1272.77
0.9436,0.0564	-1273.37
0.9222,0.0778	-1297.74
0.9214,0.0786	-1300.19
0.9216,0.0784	-1290.34
0.9834,0.0166	-1272.19
0.9591,0.0409	-1269.10
0.9427,0.0573	-1304.25
0.9279,0.0721	-1277.43
0.9089,0.0911	-1281.62
0.9277,0.0723	-1287.65
0.9826,0.0174	-1264.05
0.9551,0.0449	-1281.66
0.9356,0.0644	-1274.10
0.9297,0.0703	-1285.02
0.9188,0.0812	-1290.42
0.9385,0.0615	-1279.27
0.9842,0.0158	-1268.14
0.9626,0.0374	-1288.31
0.9430,0.0570	-1290.25
0.9385,0.0615	-1292.90
0.9180,0.0820	-1288.03
0.9363,0.0637	-1287.47
0.9847,0.0153	-1264.00
0.9483,0.0517	-1278.80
0.9242,0.0758	-1282.77
0.9431,0.0569	-1287.45
0.9082,0.0918	-1306.90
0.9421,0.0579	-1276.29
0.9829,0.0171	-1272.14
0.9464,0.0536	-1293.23
0.9308,0.0692	-1303.16
0.9396,0.0604	-1279.21
0.9138,0.0862	-1300.05
0.9541,0.0459	-1287.73
0.9830,0.0170	-1264.04
0.9414,0.0586	-1290.22
0.9494,0.0506	-1281.69
0.9473,0.0527	-1284.62
0.9202,0.0798	-1297.71
0.9482,0.0518	-1278.80
0.9824,0.0176	-1268.08
0.9410,0.0590	-1287.44
0.9480,0.0520	-1281.71
0.9384,0.0616	-1276.56
0.9334,0.0666	-1282.23
0.9489,0.0511	-1275.85
0.9810,0.0190	-1275.95
0.9178,0.0822	-1295.28
0.9512,0.0488	-1281.67
0.9370,0.0630	-1279.37
0.9446,0.0554	-1295.97
0.9363,0.0637	-1298.22
0.9855,0.0145	-1263.98
0.9262,0.0738	-1295.29
0.9530,0.0470	-1269.62
0.9290,0.0710	-1295.33
0.9420,0.0580	-1290.23
0.9303,0.0697	-1284.99
0.9856,0.0144	-1263.98
0.9334,0.0666	-1282.23
0.9481,0.0519	-1281.71
0.9220,0.0780	-1290.33
0.9254,0.0746	-1285.21
0.9446,0.0554	-1287.46
0.9837,0.0163	-1264.02
0.9291,0.0709	-1297.90
0.9626,0.0374	-1294.81
0.9286,0.0714	-1282.50
0.9303,0.0697	-1290.17
0.9559,0.0441	-1269.36
0.9788,0.0212	-1275.73
0.9320,0.0680	-1290.16
0.9614,0.0386	-1281.78
0.9375,0.0625	-1292.87
0.9354,0.0646	-1292.83
0.9661,0.0339	-1275.28
0.9753,0.0247	-1271.81
0.9430,0.0570	-1279.03
0.9630,0.0370	-1278.57
0.9464,0.0536	-1293.23
0.9446,0.0554	-1298.81
0.9560,0.0440	-1275.51
0.9684,0.0316	-1268.44
0.9475,0.0525	-1281.72
0.9720,0.0280	-1278.90
0.9585,0.0415	-1281.70
0.9308,0.0692	-1290.17
0.9649,0.0351	-1298.49
0.9611,0.0389	-1278.56
0.9369,0.0631	-1276.67
0.9665,0.0335	-1268.55
0.9608,0.0392	-1275.36
0.9228,0.0772	-1295.27
0.9665,0.0335	-1275.28
0.9683,0.0317	-1271.87
0.9279,0.0721	-1279.98
0.9641,0.0359	-1291.76
0.9586,0.0414	-1272.28
0.9167,0.0833	-1290.49
0.9672,0.0328	-1288.81
0.9645,0.0355	-1275.29
0.9366,0.0634	-1284.77
0.9647,0.0353	-1288.52
0.9609,0.0391	-1272.15
0.9361,0.0639	-1284.79
0.9697,0.0303	-1268.37
0.9654,0.0346	-1281.94
0.9492,0.0508	-1275.84
0.9619,0.0381	-1272.10
0.9619,0.0381	-1275.33
0.9352,0.0648	-1276.80
0.9609,0.0391	-1275.36
0.9683,0.0317	-1282.12
0.9386,0.0614	-1292.90
0.9682,0.0318	-1278.70
0.9615,0.0385	-1275.34
0.9406,0.0594	-1276.39
0.9712,0.0288	-1275.33
0.9547,0.0453	-1272.52
0.9557,0.0443	-1293.95
0.9687,0.0313	-1268.42
0.9577,0.0423	-1287.93
0.9259,0.0741	-1275.09
0.9741,0.0259	-1279.05
0.9650,0.0350	-1275.29
0.9525,0.0475	-1275.67
0.9734,0.0266	-1271.80
0.9682,0.0318	-1278.70
0.9192,0.0808	-1290.41
0.9773,0.0227	-1260.56
0.9612,0.0388	-1265.72
0.9527,0.0473	-1293.67
0.9793,0.0207	-1283.50
0.9611,0.0389	-1275.35
0.9219,0.0781	-1292.80
0.9746,0.0254	-1268.16
0.9645,0.0355	-1278.59
0.9610,0.0390	-1275.35
0.9817,0.0183	-1268.07
0.9621,0.0379	-1275.33
0.9341,0.0659	-1282.20
0.9704,0.0296	-1271.82
0.9650,0.0350	-1278.60
0.9620,0.0380	-1268.87
0.9807,0.0193	-1275.91
0.9634,0.0366	-1272.04
0.9186,0.0814	-1300.12
0.9662,0.0338	-1281.99
0.9617,0.0383	-1285.01
0.9568,0.0432	-1269.29
0.9762,0.0238	-1282.97
0.9705,0.0295	-1268.33
0.9215,0.0785	-1282.95
0.9701,0.0299	-1268.35
0.9571,0.0429	-1275.47
0.9539,0.0461	-1278.63
0.9732,0.0268	-1268.21
0.9677,0.0323	-1285.48
0.9059,0.0941	-1288.71
0.9719,0.0281	-1271.80
0.9531,0.0469	-1278.65
0.9551,0.0449	-1287.78
0.9722,0.0278	-1268.25
0.9766,0.0234	-1271.83
0.8954,0.1046	-1289.45
0.9726,0.0274	-1278.94
0.9497,0.0503	-1272.88
0.9527,0.0473	-1278.66
0.9718,0.0282	-1275.34
0.9731,0.0269	-1286.16
0.9030,0.0970	-1304.52
0.9725,0.0275	-1278.93
0.9459,0.0541	-1278.90
0.9557,0.0443	-1290.88
0.9716,0.0284	-1275.34
0.9761,0.0239	-1268.11
0.8997,0.1003	-1304.49
0.9799,0.0201	-1271.94
0.9349,0.0651	-1276.83
0.9552,0.0448	-1281.66
0.9683,0.0317	-1275.29
0.9705,0.0295	-1271.82
0.8932,0.1068	-1293.87
0.9807,0.0193	-1268.06
0.9364,0.0636	-1282.09
0.9544,0.0456	-1269.49
0.9612,0.0388	-1272.14
0.9751,0.0249	-1275.48
0.9025,0.0975	-1302.29
0.9827,0.0173	-1264.05
0.9479,0.0521	-1287.52
0.9486,0.0514	-1290.45
0.9676,0.0324	-1271.89
0.9760,0.0240	-1279.23
0.9121,0.0879	-1288.34
0.9793,0.0207	-1271.92
0.9271,0.0729	-1295.30
0.9502,0.0498	-1275.79
0.9643,0.0357	-1278.59
0.9777,0.0223	-1279.42
0.9142,0.0858	-1304.79
0.9788,0.0212	-1275.73
0.9206,0.0794	-1290.36
0.9621,0.0379	-1281.80
0.9661,0.0339	-1275.28
0.9804,0.0196	-1271.97
0.9073,0.0927	-1290.91
0.9799,0.0201	-1275.83
0.9194,0.0806	-1287.97
0.9733,0.0267	-1271.80
0.9673,0.0327	-1268.51
0.9824,0.0176	-1276.12
0.9175,0.0825	-1290.47
0.9825,0.0175	-1268.09
0.9360,0.0640	-1300.89
0.9708,0.0292	-1264.81
0.9698,0.0302	-1261.43
0.9852,0.0148	-1263.99
0.9259,0.0741	-1287.71
0.9830,0.0170	-1264.04
0.9303,0.0697	-1284.99
0.9700,0.0300	-1271.83
0.9707,0.0293	-1278.82
0.9869,0.0131	-1259.65
0.9057,0.0943	-1293.25
0.9831,0.0169	-1264.04
0.9254,0.0746	-1297.80
0.9590,0.0410	-1288.01
0.9765,0.0235	-1271.83
0.9803,0.0197	-1275.87
0.8918,0.1082	-1296.06
0.9745,0.0255	-1260.87
0.9407,0.0593	-1276.39
0.9625,0.0375	-1275.32
0.9740,0.0260	-1275.42
0.9792,0.0208	-1275.77
0.8958,0.1042	-1300.18
0.9699,0.0301	-1282.25
0.9449,0.0551	-1281.78
0.9614,0.0386	-1268.91
0.9756,0.0244	-1275.50
0.9773,0.0227	-1271.85
0.9054,0.0946	-1302.30
0.9724,0.0276	-1264.68
0.9458,0.0542	-1284.62
0.9574,0.0426	-1284.80
0.9800,0.0200	-1271.95
0.9734,0.0266	-1271.80
0.9057,0.0943	-1300.04
0.9758,0.0242	-1275.51
0.9467,0.0533	-1281.74
0.9526,0.0474	-1278.66
0.9797,0.0203	-1271.93
0.9701,0.0299	-1275.31
0.8916,0.1084	-1296.07
0.9761,0.0239	-1268.11
0.9509,0.0491	-1278.71
0.9610,0.0390	-1275.35
0.9789,0.0211	-1271.90
0.9756,0.0244	-1268.12
0.8893,0.1107	-1304.52
0.9719,0.0281	-1268.26
0.9492,0.0508	-1275.84
0.9602,0.0398	-1275.37
0.9801,0.0199	-1275.86
0.9786,0.0214	-1268.07
0.8976,0.1024	-1293.62
0.9756,0.0244	-1264.44
0.9492,0.0508	-1275.84
0.9636,0.0364	-1275.30
0.9814,0.0186	-1264.10
0.9801,0.0199	-1275.86
0.9148,0.0852	-1302.43
0.9755,0.0245	-1268.13
0.9521,0.0479	-1278.68
0.9769,0.0231	-1268.09
0.9804,0.0196	-1283.72
0.9756,0.0244	-1271.81
0.9245,0.0755	-1280.24
0.9758,0.0242	-1275.52
0.9525,0.0475	-1290.66
0.9740,0.0260	-1279.05
0.9839,0.0161	-1268.13
0.9785,0.0215	-1275.71
0.9302,0.0698	-1292.76
0.9708,0.0292	-1271.82
0.9413,0.0587	-1292.99
0.9754,0.0246	-1271.81
0.9825,0.0175	-1264.06
0.9732,0.0268	-1282.58
0.9290,0.0710	-1269.62
0.9744,0.0256	-1271.80
0.9439,0.0561	-1290.28
0.9775,0.0225	-1275.62
0.9830,0.0170	-1272.15
0.9686,0.0314	-1265.00
0.9348,0.0652	-1276.83
0.9765,0.0235	-1275.55
0.9407,0.0593	-1276.38
0.9754,0.0246	-1264.45
0.9838,0.0162	-1268.12
0.9722,0.0278	-1268.25
0.9441,0.0559	-1276.15
0.9788,0.0212	-1275.73
0.9505,0.0495	-1275.77
0.9748,0.0252	-1279.12
0.9826,0.0174	-1260.02
0.9561,0.0439	-1281.67
0.9312,0.0688	-1290.16
0.9788,0.0212	-1268.06
0.9487,0.0513	-1281.70
0.9686,0.0314	-1271.86
0.9874,0.0126	-1268.34
0.9499,0.0501	-1287.57
0.9308,0.0692	-1287.57
0.9813,0.0187	-1264.11
0.9527,0.0473	-1272.66
0.9679,0.0321	-1275.28
0.9900,0.0100	-1264.05
0.9401,0.0599	-1276.43
0.9276,0.0724	-1292.76
0.9785,0.0215	-1268.07
0.9528,0.0472	-1278.66
0.9655,0.0345	-1268.62
0.9904,0.0096	-1268.71
0.9391,0.0609	-1295.65
0.9199,0.0801	-1292.83
0.9837,0.0163	-1264.02
0.9542,0.0458	-1287.73
0.9639,0.0361	-1265.45
0.9891,0.0109	-1268.53
0.9414,0.0586	-1290.22
0.9204,0.0796	-1297.72
0.9821,0.0179	-1276.09
0.9464,0.0536	-1284.62
0.9567,0.0433	-1275.49
0.9902,0.0098	-1277.92
0.9404,0.0596	-1281.92
0.8998,0.1002	-1300.10
0.9820,0.0180	-1264.08
0.9432,0.0568	-1284.64
0.9522,0.0478	-1278.67
0.9895,0.0105	-1259.48
0.9437,0.0563	-1281.81
0.8945,0.1055	-1295.93
0.9832,0.0168	-1276.24
0.9294,0.0706	-1285.03
0.9555,0.0445	-1278.60
0.9884,0.0116	-1263.99
0.9254,0.0746	-1282.69
0.8881,0.1119	-1302.46
0.9815,0.0185	-1268.07
0.9391,0.0609	-1276.50
0.9296,0.0704	-1292.76
0.9908,0.0092	-1264.10
0.9349,0.0651	-1276.83
0.9047,0.0953	-1279.79
0.9802,0.0198	-1264.16
0.9492,0.0508	-1272.91
0.9207,0.0793	-1290.36
0.9887,0.0113	-1259.53
0.9272,0.0728	-1300.39
0.8928,0.1072	-1302.37
0.9813,0.0187	-1260.15
0.9438,0.0562	-1287.46
0.9219,0.0781	-1297.73
0.9849,0.0151	-1268.17
0.9354,0.0646	-1290.15
0.9167,0.0833	-1283.30
0.9806,0.0194	-1271.98
0.9510,0.0490	-1281.67
0.9216,0.0784	-1282.95
0.9830,0.0170	-1276.21
0.9437,0.0563	-1281.82
0.9078,0.0922	-1293.16
0.9794,0.0206	-1264.20
0.9404,0.0596	-1276.41
0.9051,0.0949	-1295.53
0.9806,0.0194	-1264.14
0.9500,0.0500	-1287.57
0.9328,0.0672	-1287.53
0.9777,0.0223	-1264.30
0.9244,0.0756	-1285.26
0.9008,0.0992	-1308.91
0.9781,0.0219	-1268.07
0.9603,0.0397	-1278.56
0.9270,0.0730	-1287.67
0.9823,0.0177	-1264.06
0.9176,0.0824	-1295.28
0.9137,0.0863	-1297.69
0.9750,0.0250	-1275.47
0.9607,0.0393	-1300.92
0.9325,0.0675	-1295.41
0.9809,0.0191	-1272.00
0.9341,0.0659	-1303.41
0.9011,0.0989	-1297.87
0.9809,0.0191	-1264.12
0.9630,0.0370	-1268.79
0.9218,0.0782	-1297.73
0.9837,0.0163	-1284.53
0.9281,0.0719	-1285.08
0.8916,0.1084	-1306.61
0.9767,0.0233	-1268.10
0.9611,0.0389	-1278.56
0.9177,0.0823	-1292.87
0.9878,0.0122	-1272.76
0.9285,0.0715	-1295.32
0.8800,0.1200	-1298.71
0.9726,0.0274	-1268.23
0.9623,0.0377	-1281.80
0.9075,0.0925	-1293.18
0.9898,0.0102	-1268.62
0.9468,0.0532	-1284.62
0.8819,0.1181	-1298.61
0.9774,0.0226	-1268.08
0.9623,0.0377	-1272.09
0.9092,0.0908	-1297.72
0.9867,0.0133	-1285.52
0.9555,0.0445	-1287.80
0.9140,0.0860	-1290.60
0.9735,0.0265	-1279.00
0.9599,0.0401	-1269.03
0.8949,0.1051	-1308.76
0.9863,0.0137	-1268.25
0.9579,0.0421	-1272.32
0.9264,0.0736	-1292.76
0.9705,0.0295	-1271.82
0.9532,0.0468	-1278.65
0.8975,0.1025	-1291.46
0.9805,0.0195	-1275.89
0.9580,0.0420	-1275.44
0.9198,0.0802	-1292.83
0.9567,0.0433	-1272.39
0.9506,0.0494	-1281.68
0.8969,0.1031	-1306.64
0.9790,0.0210	-1271.90
0.9557,0.0443	-1281.67
0.9298,0.0702	-1305.68
0.9580,0.0420	-1278.57
0.9468,0.0532	-1275.98
0.8840,0.1160	-1312.72
0.9798,0.0202	-1264.18
0.9538,0.0462	-1275.60
0.9425,0.0575	-1284.65
0.9519,0.0481	-1272.71
0.9508,0.0492	-1293.52
0.9137,0.0863	-1300.05
0.9806,0.0194	-1271.98
0.9615,0.0385	-1272.12
0.9479,0.0521	-1284.62
0.9426,0.0574	-1293.04
0.9363,0.0637	-1274.03
0.9161,0.0839	-1288.13
0.9821,0.0179	-1264.07
0.9657,0.0343	-1271.95
0.9452,0.0548	-1278.93
0.9416,0.0584	-1284.66
0.9495,0.0505	-1278.76
0.9219,0.0781	-1282.93
0.9816,0.0184	-1272.05
0.9669,0.0331	-1275.28
0.9373,0.0627	-1271.23
0.9624,0.0376	-1285.05
0.9461,0.0539	-1270.29
0.9185,0.0815	-1285.59
0.9813,0.0187	-1268.07
0.9709,0.0291	-1282.34
0.9277,0.0723	-1282.55
0.9645,0.0355	-1281.90
0.9371,0.0629	-1282.06
0.9286,0.0714	-1287.63
0.9827,0.0173	-1272.13
0.9749,0.0251	-1268.15
0.9284,0.0716	-1269.70
0.9662,0.0338	-1268.58
0.9293,0.0707	-1290.18
0.9134,0.0866	-1295.33
0.9839,0.0161	-1264.01
0.9769,0.0231	-1264.34
0.9375,0.0625	-1298.29
0.9695,0.0305	-1268.38
0.9213,0.0787	-1282.96
0.9100,0.0900	-1300.03
0.9818,0.0182	-1272.06
0.9727,0.0273	-1271.80
0.9493,0.0507	-1278.76
0.9726,0.0274	-1278.94
0.9326,0.0674	-1290.16
0.9085,0.0915	-1295.43
0.9804,0.0196	-1268.06
0.9669,0.0331	-1278.65
0.9575,0.0425	-1281.69
0.9779,0.0221	-1260.49
0.9330,0.0670	-1282.25
0.9149,0.0851	-1290.56
0.9841,0.0159	-1268.13
0.9671,0.0329	-1275.28
0.9602,0.0398	-1278.56
0.9725,0.0275	-1271.80
0.9408,0.0592	-1276.38
0.9131,0.0869	-1302.40
0.9849,0.0151	-1263.99
0.9753,0.0247	-1268.13
0.9658,0.0342	-1275.28
0.9654,0.0346	-1268.63
0.9535,0.0465	-1287.70
0.9079,0.0921	-1304.60
0.9809,0.0191	-1272.00
0.9775,0.0225	-1268.08
0.9716,0.0284	-1278.87
0.9509,0.0491	-1272.78
0.9558,0.0442	-1275.52
0.9119,0.0881	-1288.35
0.9802,0.0198	-1275.86
0.9807,0.0193	-1268.06
0.9705,0.0295	-1268.33
0.9621,0.0379	-1278.56
0.9538,0.0462	-1287.71
0.9169,0.0831	-1295.29
0.9793,0.0207	-1260.35
0.9773,0.0227	-1275.61
0.9682,0.0318	-1265.03
0.9647,0.0353	-1278.60
0.9443,0.0557	-1276.14
0.9391,0.0609	-1290.18
0.9742,0.0258	-1271.80
0.9731,0.0269	-1286.16
0.9719,0.0281	-1268.26
0.9686,0.0314	-1275.29
0.9490,0.0510	-1272.93
0.9506,0.0494	-1275.77
0.9741,0.0259	-1271.80
0.9592,0.0408	-1278.56
0.9701,0.0299	-1268.35
0.9665,0.0335	-1271.92
0.9550,0.0450	-1287.77
0.9522,0.0478	-1278.67
0.9676,0.0324	-1271.88
0.9719,0.0281	-1268.26
0.9623,0.0377	-1272.08
0.9682,0.0318	-1282.12
0.9534,0.0466	-1281.66
0.9510,0.0490	-1272.78
0.9662,0.0338	-1271.93
0.9682,0.0318	-1285.53
0.9571,0.0429	-1281.68
0.9576,0.0424	-1291.04
0.9541,0.0459	-1275.59
0.9441,0.0559	-1276.15
0.9702,0.0298	-1264.86
0.9664,0.0336	-1271.92
0.9544,0.0456	-1290.78
0.9603,0.0397	-1275.37
0.9489,0.0511	-1278.78
0.9363,0.0637	-1276.71
0.9607,0.0393	-1275.36
0.9662,0.0338	-1281.99
0.9474,0.0526	-1275.94
0.9608,0.0392	-1291.36
0.9646,0.0354	-1288.51
0.9364,0.0636	-1279.40
0.9649,0.0351	-1271.98
0.9605,0.0395	-1281.75
0.9364,0.0636	-1287.47
0.9650,0.0350	-1278.61
0.9686,0.0314	-1275.29
0.9343,0.0657	-1290.15
0.9564,0.0436	-1275.50
0.9680,0.0320	-1275.28
0.9360,0.0640	-1284.79
0.9727,0.0273	-1282.52
0.9691,0.0309	-1275.29
0.9290,0.0710	-1279.90
0.9571,0.0429	-1272.37
0.9668,0.0332	-1275.28
0.9362,0.0638	-1287.47
0.9737,0.0263	-1264.58
0.9677,0.0323	-1285.49
0.9062,0.0938	-1286.42
0.9606,0.0394	-1272.17
0.9669,0.0331	-1275.28
0.9483,0.0517	-1278.80
0.9725,0.0275	-1275.37
0.9616,0.0384	-1278.56
0.8808,0.1192	-1286.67
0.9634,0.0366	-1272.04
0.9687,0.0313	-1289.01
0.9522,0.0478	-1278.67
0.9730,0.0270	-1271.80
0.9621,0.0379	-1285.03
0.8858,0.1142	-1306.62
0.9661,0.0339	-1271.93
0.9731,0.0269	-1268.21
0.9535,0.0465	-1272.60
0.9707,0.0293	-1268.32
0.9707,0.0293	-1278.82
0.9011,0.0989	-1289.03
0.9603,0.0397	-1272.18
0.9736,0.0264	-1271.80
0.9546,0.0454	-1278.62
0.9693,0.0307	-1264.94
0.9638,0.0362	-1268.74
0.9138,0.0862	-1304.77
0.9577,0.0423	-1278.57
0.9757,0.0243	-1275.51
0.9604,0.0396	-1278.56
0.9697,0.0303	-1271.83
0.9617,0.0383	-1272.11
0.9227,0.0773	-1287.83
0.9486,0.0514	-1278.79
0.9683,0.0317	-1265.03
0.9656,0.0344	-1278.62
0.9628,0.0372	-1265.56
0.9668,0.0332	-1288.77
0.9060,0.0940	-1293.24
0.9403,0.0597	-1284.69
0.9707,0.0293	-1268.32
0.9656,0.0344	-1275.28
0.9717,0.0283	-1268.27
0.9688,0.0312	-1271.85
0.8900,0.1100	-1296.15
0.9248,0.0752	-1290.26
0.9698,0.0302	-1268.36
0.9661,0.0339	-1275.28
0.9662,0.0338	-1288.69
0.9744,0.0256	-1275.44
0.9064,0.0936	-1293.22
0.9351,0.0649	-1295.49
0.9722,0.0278	-1264.69
0.9665,0.0335	-1265.19
0.9685,0.0315	-1282.14
0.9721,0.0279	-1271.80
0.9197,0.0803	-1292.83
0.9356,0.0644	-1284.80
0.9716,0.0284	-1264.74
0.9703,0.0297	-1278.80
0.9663,0.0337	-1275.28
0.9799,0.0201	-1268.06
0.9225,0.0775	-1292.79
0.9362,0.0638	-1284.78
0.9794,0.0206	-1283.51
0.9711,0.0289	-1268.30
0.9641,0.0359	-1265.42
0.9809,0.0191	-1264.12
0.9217,0.0783	-1290.34
0.9278,0.0722	-1274.88
0.9744,0.0256	-1271.80
0.9657,0.0343	-1288.63
0.9657,0.0343	-1268.61
0.9785,0.0215	-1268.07
0.9262,0.0738	-1280.12
0.9283,0.0717	-1282.51
0.9766,0.0234	-1264.37
0.9536,0.0464	-1281.66
0.9619,0.0381	-1288.25
0.9720,0.0280	-1268.26
0.9181,0.0819	-1290.44
0.9270,0.0730	-1305.47
0.9766,0.0234	-1271.83
0.9598,0.0402	-1281.73
0.9563,0.0437	-1272.41
0.9795,0.0205	-1268.06
0.9093,0.0907	-1297.72
0.9295,0.0705	-1272.13
0.9756,0.0244	-1260.75
0.9573,0.0427	-1284.79
0.9635,0.0365	-1275.31
0.9781,0.0219	-1260.47
0.9187,0.0813	-1290.43
0.9149,0.0851	-1295.31
0.9743,0.0257	-1260.89
0.9558,0.0442	-1278.59
0.9695,0.0305	-1278.76
0.9764,0.0236	-1275.55
0.9139,0.0861	-1290.60
0.9025,0.0975	-1297.84
0.9664,0.0336	-1278.64
0.9482,0.0518	-1275.90
0.9647,0.0353	-1268.68
0.9715,0.0285	-1271.81
0.9117,0.0883	-1316.37
0.9095,0.0905	-1293.10
0.9681,0.0319	-1271.87
0.9552,0.0448	-1281.66
0.9624,0.0376	-1275.32
0.9661,0.0339	-1268.58
0.9229,0.0771	-1295.27
0.9140,0.0860	-1295.33
0.9616,0.0384	-1278.56
0.9556,0.0444	-1272.46
0.9634,0.0366	-1275.31
0.9717,0.0283	-1275.34
0.9284,0.0716	-1292.76
0.9109,0.0891	-1300.03
0.9559,0.0441	-1272.44
0.9607,0.0393	-1268.97
0.9515,0.0485	-1284.65
0.9722,0.0278	-1282.46
0.9183,0.0817	-1290.44
0.9368,0.0632	-1284.77
0.9527,0.0473	-1287.67
0.9581,0.0419	-1269.17
0.9494,0.0506	-1281.69
0.9735,0.0265	-1264.59
0.9255,0.0745	-1290.24
0.9423,0.0577	-1276.27
0.9487,0.0513	-1287.54
0.9575,0.0425	-1272.34
0.9412,0.0588	-1287.44
0.9777,0.0223	-1268.08
0.9257,0.0743	-1280.15
0.9420,0.0580	-1270.71
0.9300,0.0700	-1285.00
0.9576,0.0424	-1272.33
0.9503,0.0497	-1284.63
0.9771,0.0229	-1271.84
0.9292,0.0708	-1292.76
0.9459,0.0541	-1284.62
0.9372,0.0628	-1279.35
0.9619,0.0381	-1272.10
0.9599,0.0401	-1281.73
0.9787,0.0213	-1279.55
0.9154,0.0846	-1285.78
0.9563,0.0437	-1272.41
0.9392,0.0608	-1290.18
0.9695,0.0305	-1278.76
0.9571,0.0429	-1281.68
0.9769,0.0231	-1268.09
0.9195,0.0805	-1292.83
0.9595,0.0405	-1291.22
0.9533,0.0467	-1275.63
0.9703,0.0297	-1264.85
0.9549,0.0451	-1269.45
0.9830,0.0170	-1259.98
0.9344,0.0656	-1292.81
0.9512,0.0488	-1278.70
0.9540,0.0460	-1284.69
0.9692,0.0308	-1278.74
0.9583,0.0417	-1272.30
0.9828,0.0172	-1268.09
0.9334,0.0666	-1292.79
0.9577,0.0423	-1281.69
0.9528,0.0472	-1278.66
0.9769,0.0231	-1268.09
0.9496,0.0504	-1284.62
0.9833,0.0167	-1264.03
0.9415,0.0585	-1293.00
0.9620,0.0380	-1272.10
0.9471,0.0529	-1278.85
0.9706,0.0294	-1271.82
0.9557,0.0443	-1272.45
0.9830,0.0170	-1272.15
0.9396,0.0604	-1284.70
0.9549,0.0451	-1287.77
0.9322,0.0678	-1290.16
0.9600,0.0400	-1278.56
0.9590,0.0410	-1269.10
0.9834,0.0166	-1268.11
0.9397,0.0603	-1284.70
0.9524,0.0476	-1275.67
0.9156,0.0844	-1290.53
0.9611,0.0389	-1268.93
0.9541,0.0459	-1275.59
0.9871,0.0129	-1259.64
0.9319,0.0681	-1290.16
0.9435,0.0565	-1293.08
0.9172,0.0828	-1290.48
0.9600,0.0400	-1275.38
0.9530,0.0470	-1278.65
0.9872,0.0128	-1263.98
0.9243,0.0757	-1290.27
0.9395,0.0605	-1292.93
0.9109,0.0891	-1300.03
0.9555,0.0445	-1278.60
0.9538,0.0462	-1281.66
0.9894,0.0106	-1273.10
0.9413,0.0587	-1306.86
0.9460,0.0540	-1287.48
0.9147,0.0853	-1290.57
0.9431,0.0569	-1273.41
0.9442,0.0558	-1284.63
0.9882,0.0118	-1263.99
0.9388,0.0612	-1279.26
0.9439,0.0561	-1298.74
0.9230,0.0770	-1297.75
0.9464,0.0536	-1281.75
0.9490,0.0510	-1275.85
0.9868,0.0132	-1263.97
0.9417,0.0583	-1281.88
0.9231,0.0769	-1280.36
0.9185,0.0815	-1288.01
0.9470,0.0530	-1281.73
0.9370,0.0630	-1276.66
0.9870,0.0130	-1263.98
0.9426,0.0574	-1284.65
0.9210,0.0790	-1300.18
0.9230,0.0770	-1280.36
0.9461,0.0539	-1284.62
0.9317,0.0683	-1298.00
0.9868,0.0132	-1259.66
0.9354,0.0646	-1290.15
0.9246,0.0754	-1290.26
0.9354,0.0646	-1290.15
0.9556,0.0444	-1287.80
0.9448,0.0552	-1284.63
0.9870,0.0130	-1259.64
0.9313,0.0687	-1290.16
0.9310,0.0690	-1295.37
0.9388,0.0612	-1276.52
0.9501,0.0499	-1287.57
0.9391,0.0609	-1290.18
0.9838,0.0162	-1272.23
0.9224,0.0776	-1297.74
0.9325,0.0675	-1274.40
0.9342,0.0658	-1274.24
0.9573,0.0427	-1272.35
0.9411,0.0589	-1281.90
0.9838,0.0162	-1259.91
0.9345,0.0655	-1295.47
0.9332,0.0668	-1287.52
0.9444,0.0556	-1295.96
0.9443,0.0557	-1298.78
0.9377,0.0623	-1271.18
0.9800,0.0200	-1260.28
0.9399,0.0601	-1279.20
0.9329,0.0671	-1290.15
0.9486,0.0514	-1275.88
0.9409,0.0591	-1284.67
0.9327,0.0673	-1298.04
0.9797,0.0203	-1275.81
0.9375,0.0625	-1284.75
0.9301,0.0699	-1292.76
0.9534,0.0466	-1281.66
0.9372,0.0628	-1284.76
0.9243,0.0757	-1280.26
0.9806,0.0194	-1271.98
0.9569,0.0431	-1275.48
0.9471,0.0529	-1281.73
0.9580,0.0420	-1278.57
0.9291,0.0709	-1282.47
0.9194,0.0806	-1287.97
0.9752,0.0248	-1271.81
0.9535,0.0465	-1278.64
0.9399,0.0601	-1290.19
0.9542,0.0458	-1272.55
0.9191,0.0809	-1285.55
0.9080,0.0920	-1309.18
0.9794,0.0206	-1271.92
0.9588,0.0412	-1272.26
0.9451,0.0549	-1278.93
0.9600,0.0400	-1281.73
0.9289,0.0711	-1290.19
0.9252,0.0748	-1290.25
0.9795,0.0205	-1275.79
0.9454,0.0546	-1284.62
0.9570,0.0430	-1278.58
0.9655,0.0345	-1278.62
0.9240,0.0760	-1280.28
0.9327,0.0673	-1295.41
0.9750,0.0250	-1275.47
0.9488,0.0512	-1270.03
0.9588,0.0412	-1269.12
0.9720,0.0280	-1264.71
0.9200,0.0800	-1287.94
0.9193,0.0807	-1297.70
0.9677,0.0323	-1288.88
0.9425,0.0575	-1290.24
0.9619,0.0381	-1288.25
0.9719,0.0281	-1278.89
0.9226,0.0774	-1285.35
0.9213,0.0787	-1292.81
0.9749,0.0251	-1286.44
0.9557,0.0443	-1287.81
0.9602,0.0398	-1272.19
0.9712,0.0288	-1264.77
0.9116,0.0884	-1300.03
0.9253,0.0747	-1305.34
0.9775,0.0225	-1268.08
0.9631,0.0369	-1272.05
0.9494,0.0506	-1272.89
0.9723,0.0277	-1275.36
0.9157,0.0843	-1283.38
0.9127,0.0873	-1297.69
0.9832,0.0168	-1264.03
0.9655,0.0345	-1278.62
0.9543,0.0457	-1284.70
0.9778,0.0222	-1279.43
0.9029,0.0971	-1306.75
0.8977,0.1023	-1295.80
0.9836,0.0164	-1264.02
0.9630,0.0370	-1268.80
0.9463,0.0537	-1281.75
0.9774,0.0226	-1271.85
0.9297,0.0703	-1285.02
0.8863,0.1137	-1296.35
0.9736,0.0264	-1271.80
0.9646,0.0354	-1275.29
0.9472,0.0528	-1278.84
0.9768,0.0232	-1268.10
0.9284,0.0716	-1287.63
0.9013,0.0987	-1302.29
0.9693,0.0307	-1268.39
0.9579,0.0421	-1287.94
0.9444,0.0556	-1273.30
0.9803,0.0197	-1268.06
0.9392,0.0608	-1295.66
0.9155,0.0845	-1276.25
0.9716,0.0284	-1271.81
0.9569,0.0431	-1284.78
0.9381,0.0619	-1292.89
0.9799,0.0201	-1268.06
0.9412,0.0588	-1290.22
0.9210,0.0790	-1305.09
0.9715,0.0285	-1278.87
0.9471,0.0529	-1275.96
0.9355,0.0645	-1279.46
0.9749,0.0251	-1264.49
0.9325,0.0675	-1274.40
0.9218,0.0782	-1297.73
0.9800,0.0200	-1264.17
0.9418,0.0582	-1270.74
0.9303,0.0697	-1279.80
0.9779,0.0221	-1283.23
0.9393,0.0607	-1273.75
0.9082,0.0918	-1293.15
0.9829,0.0171	-1268.09
0.9465,0.0535	-1293.24
0.9158,0.0842	-1290.53
0.9750,0.0250	-1275.47
0.9309,0.0691	-1303.17
0.9233,0.0767	-1287.80
0.9825,0.0175	-1264.06
0.9498,0.0502	-1269.93
0.9215,0.0785	-1287.88
0.9704,0.0296	-1271.82
0.9434,0.0566	-1295.89
0.9323,0.0677	-1287.53
0.9829,0.0171	-1268.09
0.9526,0.0474	-1287.66
0.9216,0.0784	-1297.73
0.9730,0.0270	-1275.38
0.9472,0.0528	-1290.39
0.9341,0.0659	-1276.90
0.9788,0.0212	-1264.23
0.9446,0.0554	-1278.95
0.9127,0.0873	-1297.69
0.9704,0.0296	-1268.33
0.9477,0.0523	-1293.31
0.9405,0.0595	-1273.64
0.9761,0.0239	-1271.82
0.9461,0.0539	-1281.75
0.9199,0.0801	-1297.71
0.9633,0.0367	-1285.11
0.9475,0.0525	-1275.94
0.9492,0.0508	-1278.77
0.9700,0.0300	-1275.31
0.9416,0.0584	-1281.88
0.9124,0.0876	-1293.01
0.9645,0.0355	-1271.99
0.9476,0.0524	-1273.04
0.9651,0.0349	-1265.32
0.9771,0.0229	-1268.09
0.9326,0.0674	-1287.53
0.9235,0.0765	-1290.29
0.9678,0.0322	-1302.50
0.9451,0.0549	-1284.62
0.9691,0.0309	-1271.85
0.9759,0.0241	-1268.12
0.9438,0.0562	-1276.17
0.9143,0.0857	-1283.48
0.9673,0.0327	-1275.28
0.9496,0.0504	-1296.37
0.9557,0.0443	-1278.60
0.9753,0.0247	-1268.13
0.9507,0.0493	-1284.64
0.9117,0.0883	-1297.70
0.9741,0.0259	-1264.55
0.9548,0.0452	-1287.76
0.9491,0.0509	-1287.55
0.9707,0.0293	-1271.82
0.9574,0.0426	-1278.57
0.8953,0.1047	-1293.75
0.9758,0.0242	-1271.82
0.9455,0.0545	-1287.47
0.9389,0.0611	-1287.45
0.9654,0.0346	-1265.30
0.9596,0.0404	-1284.89
0.8937,0.1063	-1300.23
0.9800,0.0200	-1268.06
0.9420,0.0580	-1306.96
0.9353,0.0647	-1284.81
0.9697,0.0303	-1278.77
0.9687,0.0313	-1271.86
0.8884,0.1116	-1310.75
0.9772,0.0228	-1279.37
0.9441,0.0559	-1281.80
0.9358,0.0642	-1292.83
0.9633,0.0367	-1262.23
0.9656,0.0344	-1288.62
0.8871,0.1129	-1300.43
0.9799,0.0201	-1264.17
0.9529,0.0471	-1284.67
0.9370,0.0630	-1279.36
0.9546,0.0454	-1278.62
0.9628,0.0372	-1272.06
0.8753,0.1247	-1297.03
0.9761,0.0239	-1275.53
0.9621,0.0379	-1272.10
0.9537,0.0463	-1275.61
0.9628,0.0372	-1265.55
0.9595,0.0405	-1278.56
0.8864,0.1136	-1298.40
0.9722,0.0278	-1278.91
0.9586,0.0414	-1281.70
0.9587,0.0413	-1278.56
0.9716,0.0284	-1282.41
0.9573,0.0427	-1266.13
0.8795,0.1205	-1296.75
0.9734,0.0266	-1264.60
0.9421,0.0579	-1270.71
0.9564,0.0436	-1272.41
0.9658,0.0342	-1271.94
0.9603,0.0397	-1272.19
0.9108,0.0892	-1307.00
0.9665,0.0335	-1278.64
0.9491,0.0509	-1281.70
0.9594,0.0406	-1278.56
0.9708,0.0292	-1271.82
0.9687,0.0313	-1278.72
0.9067,0.0933	-1290.94
0.9715,0.0285	-1268.28
0.9426,0.0574	-1281.85
0.9563,0.0437	-1281.67
0.9668,0.0332	-1292.14
0.9639,0.0361	-1275.30
0.9044,0.0956	-1293.30
0.9735,0.0265	-1268.19
0.9517,0.0483	-1287.63
0.9563,0.0437	-1272.42
0.9675,0.0325	-1268.50
0.9676,0.0324	-1268.49
0.8832,0.1168	-1304.62
0.9720,0.0280	-1271.80
0.9477,0.0523	-1281.72
0.9672,0.0328	-1271.90
0.9573,0.0427	-1287.91
0.9701,0.0299	-1268.35
0.8497,0.1503	-1312.92
0.9687,0.0313	-1278.72
0.9544,0.0456	-1281.66
0.9633,0.0367	-1281.84
0.9655,0.0345	-1268.62
0.9726,0.0274	-1271.80
0.8697,0.1303	-1314.50
0.9636,0.0364	-1275.30
0.9498,0.0502	-1284.63
0.9583,0.0417	-1278.56
0.9551,0.0449	-1269.43
0.9768,0.0232	-1264.36
0.8827,0.1173	-1296.55
0.9694,0.0306	-1278.75
0.9564,0.0436	-1281.67
0.9601,0.0399	-1278.56
0.9618,0.0382	-1285.01
0.9823,0.0177	-1276.12
0.8929,0.1071	-1296.01
0.9692,0.0308	-1278.74
0.9574,0.0426	-1269.23
0.9611,0.0389	-1281.77
0.9635,0.0365	-1285.13
0.9833,0.0167	-1272.18
0.8957,0.1043	-1306.63
0.9636,0.0364	-1272.03
0.9545,0.0455	-1281.66
0.9570,0.0430	-1281.68
0.9681,0.0319	-1282.11
0.9799,0.0201	-1279.72
0.8957,0.1043	-1300.18
0.9574,0.0426	-1284.80
0.9525,0.0475	-1278.66
0.9674,0.0326	-1278.67
0.9681,0.0319	-1271.87
0.9785,0.0215	-1271.89
0.8795,0.1205	-1300.72
0.9561,0.0439	-1278.59
0.9675,0.0325	-1268.49
0.9744,0.0256	-1264.52
0.9646,0.0354	-1278.60
0.9783,0.0217	-1260.45
0.9032,0.0968	-1293.36
0.9595,0.0405	-1275.39
0.9717,0.0283	-1268.27
0.9696,0.0304	-1278.76
0.9643,0.0357	-1272.00
0.9796,0.0204	-1271.93
0.8951,0.1049	-1289.47
0.9603,0.0397	-1281.74
0.9643,0.0357	-1288.48
0.9741,0.0259	-1268.17
0.9571,0.0429	-1272.37
0.9770,0.0230	-1264.34
0.9052,0.0948	-1297.78
0.9547,0.0453	-1278.61
0.9608,0.0392	-1275.36
0.9732,0.0268	-1275.39
0.9670,0.0330	-1268.52
0.9810,0.0190	-1264.12
0.9075,0.0925	-1295.46
0.9565,0.0435	-1284.76
0.9525,0.0475	-1284.66
0.9753,0.0247	-1260.78
0.9628,0.0372	-1275.32
0.9842,0.0158	-1259.87
0.9124,0.0876	-1297.69
0.9588,0.0412	-1265.97
0.9558,0.0442	-1284.74
0.9745,0.0255	-1271.80
0.9609,0.0391	-1272.15
0.9794,0.0206	-1271.92
0.9340,0.0660	-1292.80
0.9475,0.0525	-1275.94
0.9544,0.0456	-1278.62
0.9763,0.0237	-1271.83
0.9619,0.0381	-1275.33
0.9747,0.0253	-1275.46
0.9489,0.0511	-1287.54
0.9456,0.0544	-1276.06
0.9456,0.0544	-1278.91
0.9768,0.0232	-1279.32
0.9620,0.0380	-1278.56
0.9816,0.0184	-1276.02
0.9405,0.0595	-1279.16
0.9339,0.0661	-1290.15
0.9456,0.0544	-1290.33
0.9750,0.0250	-1264.48
0.9632,0.0368	-1294.90
0.9781,0.0219	-1271.87
0.9324,0.0676	-1277.03
0.9334,0.0666	-1282.23
0.9481,0.0519	-1287.52
0.9708,0.0292	-1264.81
0.9653,0.0347	-1268.63
0.9787,0.0213	-1264.24
0.9350,0.0650	-1284.82
0.9359,0.0641	-1287.47
0.9606,0.0394	-1278.56
0.9739,0.0261	-1279.04
0.9718,0.0282	-1275.34
0.9803,0.0197	-1271.96
0.9314,0.0686	-1269.30
0.9315,0.0685	-1279.73
0.9524,0.0476	-1281.66
0.9750,0.0250	-1268.14
0.9768,0.0232	-1275.57
0.9874,0.0126	-1268.34
0.9380,0.0620	-1290.17
0.9125,0.0875	-1295.35
0.9644,0.0356	-1265.40
0.9733,0.0267	-1271.80
0.9736,0.0264	-1279.01
0.9853,0.0147	-1259.78
0.9421,0.0579	-1281.87
0.9334,0.0666	-1292.79
0.9598,0.0402	-1281.73
0.9669,0.0331	-1275.28
0.9713,0.0287	-1275.33
0.9888,0.0112	-1268.48
0.9315,0.0685	-1297.99
0.9231,0.0769	-1290.30
0.9572,0.0428	-1272.36
0.9692,0.0308	-1268.39
0.9723,0.0277	-1271.80
0.9861,0.0139	-1272.50
0.9335,0.0665	-1287.51
0.9287,0.0713	-1277.35
0.9447,0.0553	-1284.63
0.9611,0.0389	-1272.14
0.9721,0.0279	-1286.00
0.9810,0.0190	-1260.17
0.9328,0.0672	-1284.90
0.9134,0.0866	-1285.91
0.9347,0.0653	-1287.49
0.9596,0.0404	-1278.56
0.9758,0.0242	-1271.82
0.9771,0.0229	-1271.84
0.9322,0.0678	-1290.16
0.9086,0.0914	-1283.95
0.9315,0.0685	-1284.94
0.9639,0.0361	-1278.58
0.9729,0.0271	-1278.96
0.9803,0.0197	-1271.97
0.9169,0.0831	-1285.69
0.9072,0.0928	-1295.47
0.9482,0.0518	-1275.90
0.9578,0.0422	-1278.57
0.9743,0.0257	-1271.80
0.9785,0.0215	-1268.07
0.9201,0.0799	-1280.61
0.9198,0.0802	-1292.83
0.9505,0.0495	-1290.54
0.9567,0.0433	-1284.77
0.9668,0.0332	-1265.16
0.9784,0.0216	-1271.88
0.9437,0.0563	-1281.81
0.9343,0.0657	-1282.19
0.9507,0.0493	-1281.68
0.9473,0.0527	-1284.62
0.9751,0.0249	-1268.14
0.9761,0.0239	-1271.82
0.9457,0.0543	-1278.91
0.9337,0.0663	-1271.64
0.9563,0.0437	-1294.02
0.9487,0.0513	-1270.04
0.9724,0.0276	-1261.11
0.9826,0.0174	-1276.16
0.9307,0.0693	-1279.78
0.9286,0.0714	-1292.76
0.9426,0.0574	-1293.05
0.9449,0.0551	-1281.78
0.9648,0.0352	-1285.23
0.9865,0.0135	-1268.27
0.9150,0.0850	-1295.31
0.9261,0.0739	-1292.76
0.9485,0.0515	-1272.97
0.9424,0.0576	-1279.06
0.9640,0.0360	-1281.87
0.9846,0.0154	-1264.00
0.9033,0.0967	-1297.82
0.9417,0.0583	-1273.54
0.9476,0.0524	-1290.41
0.9433,0.0567	-1298.70
0.9589,0.0411	-1278.56
0.9850,0.0150	-1263.99
0.8821,0.1179	-1298.60
0.9532,0.0468	-1284.68
0.9347,0.0653	-1284.83
0.9448,0.0552	-1287.47
0.9641,0.0359	-1278.59
0.9832,0.0168	-1272.17
0.8910,0.1090	-1302.40
0.9295,0.0705	-1290.18
0.9325,0.0675	-1295.41
0.9269,0.0731	-1292.76
0.9545,0.0455	-1275.58
0.9847,0.0153	-1263.99
0.8868,0.1132	-1304.55
0.9243,0.0757	-1285.27
0.9057,0.0943	-1284.20
0.9112,0.0888	-1307.02
0.9553,0.0447	-1278.60
0.9848,0.0152	-1276.50
0.8949,0.1051	-1302.34
0.9208,0.0792	-1283.00
0.8957,0.1043	-1295.88
0.9029,0.0971	-1293.37
0.9592,0.0408	-1278.56
0.9832,0.0168	-1280.32
0.8948,0.1052	-1308.76
0.9017,0.0983	-1284.56
0.9149,0.0851	-1292.94
0.9247,0.0753	-1292.77
0.9600,0.0400	-1278.56
0.9826,0.0174	-1264.05
0.8955,0.1045	-1302.33
0.9015,0.0985	-1300.08
0.9005,0.0995	-1302.29
0.9314,0.0686	-1287.56
0.9515,0.0485	-1287.62
0.9805,0.0195	-1264.14
0.9268,0.0732	-1305.45
0.9058,0.0942	-1304.56
0.9145,0.0855	-1292.95
0.9239,0.0761	-1290.28
0.9587,0.0413	-1278.56
0.9790,0.0210	-1260.37
0.9360,0.0640	-1279.42
0.9154,0.0846	-1288.16
0.9236,0.0764	-1290.29
0.9237,0.0763	-1290.28
0.9620,0.0380	-1275.33
0.9717,0.0283	-1275.34
0.9308,0.0692	-1287.57
0.9306,0.0694	-1282.38
0.9264,0.0736	-1297.83
0.9169,0.0831	-1285.69
0.9637,0.0363	-1275.30
0.9794,0.0206	-1268.06
0.9330,0.0670	-1276.99
0.9231,0.0769	-1302.72
0.9213,0.0787	-1285.42
0.9240,0.0760	-1275.29
0.9624,0.0376	-1275.32
0.9801,0.0199	-1271.96
0.9233,0.0767	-1285.32
0.9167,0.0833	-1290.49
0.9174,0.0826	-1285.66
0.9032,0.0968	-1288.89
0.9646,0.0354	-1278.60
0.9787,0.0213	-1260.41
0.9336,0.0664	-1282.22
0.9225,0.0775	-1302.70
0.9126,0.0874	-1285.96
0.9072,0.0928	-1297.75
0.9596,0.0404	-1278.56
0.9813,0.0187	-1268.06
0.9306,0.0694	-1292.76
0.9256,0.0744	-1297.81
0.9049,0.0951	-1302.29
0.9067,0.0933	-1281.84
0.9520,0.0480	-1278.68
0.9839,0.0161	-1264.01
0.9111,0.0889	-1307.01
0.9266,0.0734	-1280.08
0.9008,0.0992	-1295.67
0.8995,0.1005	-1302.30
0.9573,0.0427	-1272.35
0.9787,0.0213	-1268.06
0.9259,0.0741	-1287.71
0.9212,0.0788	-1282.97
0.8992,0.1008	-1311.05
0.9077,0.0923	-1300.03
0.9596,0.0404	-1272.22
0.9776,0.0224	-1271.86
0.9237,0.0763	-1287.79
0.9194,0.0806	-1280.67
0.9128,0.0872	-1295.34
0.9149,0.0851	-1302.44
0.9660,0.0340	-1275.28
0.9742,0.0258	-1275.43
0.9365,0.0635	-1290.16
0.9169,0.0831	-1285.68
0.9166,0.0834	-1292.89
0.9188,0.0812	-1288.00
0.9623,0.0377	-1278.56
0.9642,0.0358	-1278.59
0.9236,0.0764	-1302.75
0.9085,0.0915	-1288.55
0.9044,0.0956	-1304.54
0.9287,0.0713	-1292.76
0.9657,0.0343	-1275.28
0.9634,0.0366	-1278.58
0.9293,0.0707	-1277.30
0.9187,0.0813	-1300.12
0.8992,0.1008	-1295.73
0.9333,0.0667	-1295.43
0.9710,0.0290	-1271.81
0.9600,0.0400	-1272.20
0.9301,0.0699	-1287.59
0.9160,0.0840	-1292.91
0.9008,0.0992	-1300.08
0.9378,0.0622	-1287.45
0.9709,0.0291	-1275.32
0.9567,0.0433	-1278.58
0.9351,0.0649	-1282.15
0.9264,0.0736	-1285.16
0.8871,0.1129	-1316.92
0.9334,0.0666	-1274.31
0.9715,0.0285	-1264.75
0.9558,0.0442	-1275.52
0.9344,0.0656	-1292.81
0.9179,0.0821	-1290.45
0.8896,0.1104	-1302.43
0.9349,0.0651	-1282.16
0.9713,0.0287	-1275.33
0.9440,0.0560	-1276.16
0.9460,0.0540	-1281.76
0.9145,0.0855	-1292.95
0.8939,0.1061	-1300.22
0.9244,0.0756	-1295.27
0.9695,0.0305	-1275.30
0.9451,0.0549	-1284.62
0.9479,0.0521	-1284.62
0.9292,0.0708	-1287.61
0.9122,0.0878	-1297.70
0.9248,0.0752	-1300.30
0.9665,0.0335	-1282.00
0.9451,0.0549	-1287.47
0.9429,0.0571	-1290.25
0.9203,0.0797	-1287.93
0.9252,0.0748	-1297.80
0.9047,0.0953	-1291.04
0.9641,0.0359	-1268.72
0.9466,0.0534	-1275.99
0.9466,0.0534	-1284.62
0.9091,0.0909	-1290.82
0.9356,0.0644	-1303.53
0.9089,0.0911	-1293.13
0.9746,0.0254	-1264.51
0.9500,0.0500	-1272.85
0.9284,0.0716	-1285.07
0.9027,0.0973	-1295.61
0.9267,0.0733	-1285.15
0.9291,0.0709	-1279.90
0.9803,0.0197	-1279.77
0.9538,0.0462	-1272.58
0.9277,0.0723	-1292.76
0.8941,0.1059	-1310.88
0.9358,0.0642	-1290.15
