#isoforms=['ENSG00000186575.SE.4.A.up_ENSG00000186575.SE.4.A.SE1_ENSG00000186575.SE.4.A.dn','ENSG00000186575.SE.4.B.up_ENSG00000186575.SE.4.B.dn']	exon_lens=('ENSG00000186575.SE.4.A.up',128),('ENSG00000186575.SE.4.A.SE1',163),('ENSG00000186575.SE.4.A.dn',3847),('ENSG00000186575.SE.4.B.up',128),('ENSG00000186575.SE.4.B.dn',194)	iters=5000	burn_in=500	lag=10	percent_accept=96.34	proposal_type=drift	counts=(0,0):155,(1,0):2627,(1,1):119	assigned_counts=0:2741,1:5	chrom=chr22	strand=+	mRNA_starts=29678196,29678196	mRNA_ends=29698598,29694945
sampled_psi	log_score
0.9608,0.0392	-22859.36
0.9801,0.0199	-22839.60
0.9514,0.0486	-22860.11
0.9927,0.0073	-22842.15
0.9594,0.0406	-22862.61
0.9651,0.0349	-22859.11
0.9662,0.0338	-22865.77
0.9793,0.0207	-22847.48
0.9532,0.0468	-22856.93
0.9941,0.0059	-22842.10
0.9524,0.0476	-22854.02
0.9661,0.0339	-22869.11
0.9610,0.0390	-22862.55
0.9815,0.0185	-22847.29
0.9476,0.0524	-22874.96
0.9924,0.0076	-22837.29
0.9516,0.0484	-22860.10
0.9654,0.0346	-22859.09
0.9707,0.0293	-22848.42
0.9796,0.0204	-22851.32
0.9652,0.0348	-22869.07
0.9936,0.0064	-22837.06
0.9547,0.0453	-22862.86
0.9639,0.0361	-22849.31
0.9729,0.0271	-22858.89
0.9728,0.0272	-22858.90
0.9733,0.0267	-22848.10
0.9938,0.0062	-22842.11
0.9628,0.0372	-22855.98
0.9611,0.0389	-22849.71
0.9705,0.0295	-22855.43
0.9760,0.0240	-22855.22
0.9792,0.0208	-22843.63
0.9939,0.0061	-22842.11
0.9661,0.0339	-22852.37
0.9546,0.0454	-22850.69
0.9679,0.0321	-22852.18
0.9737,0.0263	-22862.50
0.9839,0.0161	-22851.23
0.9944,0.0056	-22836.93
0.9700,0.0300	-22848.51
0.9528,0.0472	-22865.99
0.9681,0.0319	-22848.74
0.9753,0.0247	-22847.88
0.9834,0.0166	-22847.14
0.9948,0.0052	-22847.36
0.9763,0.0237	-22851.49
0.9487,0.0513	-22874.96
0.9690,0.0310	-22858.96
0.9710,0.0290	-22848.38
0.9770,0.0230	-22851.45
0.9946,0.0054	-22836.88
0.9758,0.0242	-22855.22
0.9396,0.0604	-22869.61
0.9675,0.0325	-22852.22
0.9673,0.0327	-22855.63
0.9810,0.0190	-22851.27
0.9950,0.0050	-22836.82
0.9780,0.0220	-22855.19
0.9344,0.0656	-22859.36
0.9707,0.0293	-22844.91
0.9673,0.0327	-22848.86
0.9865,0.0135	-22842.69
0.9945,0.0055	-22836.90
0.9736,0.0264	-22873.32
0.9426,0.0574	-22875.02
0.9717,0.0283	-22851.83
0.9633,0.0367	-22855.93
0.9871,0.0129	-22846.96
0.9944,0.0056	-22836.92
0.9731,0.0269	-22851.71
0.9411,0.0589	-22869.51
0.9728,0.0272	-22848.17
0.9620,0.0380	-22849.59
0.9849,0.0151	-22851.23
0.9950,0.0050	-22842.10
0.9767,0.0233	-22847.73
0.9361,0.0639	-22872.54
0.9795,0.0205	-22847.45
0.9499,0.0501	-22886.73
0.9869,0.0131	-22838.33
0.9952,0.0048	-22852.76
0.9784,0.0216	-22859.00
0.9242,0.0758	-22865.89
0.9815,0.0185	-22851.26
0.9542,0.0458	-22865.93
0.9870,0.0130	-22842.64
0.9946,0.0054	-22842.10
0.9753,0.0247	-22844.21
0.9300,0.0700	-22878.11
0.9819,0.0181	-22855.24
0.9609,0.0391	-22881.76
0.9864,0.0136	-22851.27
0.9932,0.0068	-22837.15
0.9773,0.0227	-22847.67
0.9342,0.0658	-22870.00
0.9827,0.0173	-22847.20
0.9590,0.0410	-22846.88
0.9865,0.0135	-22842.69
0.9914,0.0086	-22842.23
0.9773,0.0227	-22840.15
0.9346,0.0654	-22854.01
0.9834,0.0166	-22851.23
0.9384,0.0616	-22875.13
0.9858,0.0142	-22855.49
0.9904,0.0096	-22842.30
0.9746,0.0254	-22844.30
0.9374,0.0626	-22869.76
0.9866,0.0134	-22842.68
0.9476,0.0524	-22851.80
0.9863,0.0137	-22842.71
0.9894,0.0106	-22837.86
0.9723,0.0277	-22858.90
0.9305,0.0695	-22875.49
0.9836,0.0164	-22851.23
0.9501,0.0499	-22860.23
0.9867,0.0133	-22838.36
0.9905,0.0095	-22837.64
0.9726,0.0274	-22855.33
0.9208,0.0792	-22873.69
0.9833,0.0167	-22847.15
0.9495,0.0505	-22874.96
0.9868,0.0132	-22838.34
0.9913,0.0087	-22846.97
0.9721,0.0279	-22855.35
0.9087,0.0913	-22874.93
0.9823,0.0177	-22851.24
0.9545,0.0455	-22847.65
0.9854,0.0146	-22847.03
0.9906,0.0094	-22837.62
0.9713,0.0287	-22848.35
0.9184,0.0816	-22878.76
0.9810,0.0190	-22851.27
0.9626,0.0374	-22865.74
0.9843,0.0157	-22842.95
0.9911,0.0089	-22837.54
0.9707,0.0293	-22848.42
0.9373,0.0627	-22858.94
0.9801,0.0199	-22855.20
0.9552,0.0448	-22859.77
0.9846,0.0154	-22847.07
0.9885,0.0115	-22846.93
0.9678,0.0322	-22852.19
0.9368,0.0632	-22872.50
0.9809,0.0191	-22859.15
0.9526,0.0474	-22857.00
0.9867,0.0133	-22842.67
0.9888,0.0112	-22842.45
0.9706,0.0294	-22851.93
0.9334,0.0666	-22875.34
0.9830,0.0170	-22843.11
0.9563,0.0437	-22862.77
0.9839,0.0161	-22847.11
0.9902,0.0098	-22837.71
0.9704,0.0296	-22851.94
0.9253,0.0747	-22868.27
0.9773,0.0227	-22858.96
0.9556,0.0444	-22868.95
0.9820,0.0180	-22847.24
0.9892,0.0108	-22846.92
0.9656,0.0344	-22849.08
0.9404,0.0596	-22858.52
0.9729,0.0271	-22840.99
0.9634,0.0366	-22859.20
0.9797,0.0203	-22847.44
0.9864,0.0136	-22855.55
0.9710,0.0290	-22848.38
0.9453,0.0547	-22877.82
0.9735,0.0265	-22855.29
0.9650,0.0350	-22859.11
0.9827,0.0173	-22839.12
0.9870,0.0130	-22846.96
0.9674,0.0326	-22859.01
0.9525,0.0475	-22851.01
0.9640,0.0360	-22869.03
0.9639,0.0361	-22846.03
0.9871,0.0129	-22838.29
0.9829,0.0171	-22843.12
0.9635,0.0365	-22855.92
0.9496,0.0504	-22869.09
0.9731,0.0269	-22848.13
0.9675,0.0325	-22852.22
0.9878,0.0122	-22838.14
0.9864,0.0136	-22838.41
0.9553,0.0447	-22856.70
0.9541,0.0459	-22853.80
0.9705,0.0295	-22858.92
0.9668,0.0332	-22865.78
0.9895,0.0105	-22851.48
0.9845,0.0155	-22842.93
0.9545,0.0455	-22865.92
0.9582,0.0418	-22859.54
0.9747,0.0253	-22866.20
0.9655,0.0345	-22859.09
0.9895,0.0105	-22837.83
0.9854,0.0146	-22847.03
0.9451,0.0549	-22863.59
0.9535,0.0465	-22865.96
0.9768,0.0232	-22847.72
0.9567,0.0433	-22856.56
0.9909,0.0091	-22837.57
0.9847,0.0153	-22838.74
0.9363,0.0637	-22864.46
0.9600,0.0400	-22849.87
0.9788,0.0212	-22843.69
0.9589,0.0411	-22862.64
0.9885,0.0115	-22838.02
0.9819,0.0181	-22851.25
0.9387,0.0613	-22861.48
0.9714,0.0286	-22855.38
0.9767,0.0233	-22844.00
0.9614,0.0386	-22868.96
0.9893,0.0107	-22842.40
0.9800,0.0200	-22855.20
0.9357,0.0643	-22864.52
0.9807,0.0193	-22843.43
0.9816,0.0184	-22839.32
0.9626,0.0374	-22849.50
0.9855,0.0145	-22847.02
0.9812,0.0188	-22843.35
0.9319,0.0681	-22859.72
0.9842,0.0158	-22842.96
0.9848,0.0152	-22855.40
0.9613,0.0387	-22849.69
0.9870,0.0130	-22838.30
0.9805,0.0195	-22847.37
0.9271,0.0729	-22868.06
0.9848,0.0152	-22838.71
0.9845,0.0155	-22851.23
0.9650,0.0350	-22842.54
0.9863,0.0137	-22851.27
0.9750,0.0250	-22855.24
0.9311,0.0689	-22870.25
0.9867,0.0133	-22842.67
0.9887,0.0113	-22837.99
0.9682,0.0318	-22852.15
0.9858,0.0142	-22838.53
0.9808,0.0192	-22851.28
0.9247,0.0753	-22868.34
0.9876,0.0124	-22842.56
0.9902,0.0098	-22842.32
0.9670,0.0330	-22855.65
0.9842,0.0158	-22842.96
0.9779,0.0221	-22843.82
0.9087,0.0913	-22868.03
0.9897,0.0103	-22842.36
0.9902,0.0098	-22842.32
0.9734,0.0266	-22840.90
0.9872,0.0128	-22842.62
0.9704,0.0296	-22844.96
0.9097,0.0903	-22877.13
0.9904,0.0096	-22837.67
0.9916,0.0084	-22842.21
0.9736,0.0264	-22862.50
0.9861,0.0139	-22842.73
0.9676,0.0324	-22855.61
0.9154,0.0846	-22883.74
0.9901,0.0099	-22846.93
0.9905,0.0095	-22851.59
0.9719,0.0281	-22855.36
0.9849,0.0151	-22838.70
0.9679,0.0321	-22855.59
0.9230,0.0770	-22871.01
0.9898,0.0102	-22837.78
0.9897,0.0103	-22837.80
0.9756,0.0244	-22847.85
0.9822,0.0178	-22847.23
0.9667,0.0333	-22852.31
0.9281,0.0719	-22885.87
0.9893,0.0107	-22837.86
0.9887,0.0113	-22846.93
0.9771,0.0229	-22858.95
0.9829,0.0171	-22847.18
0.9708,0.0292	-22851.91
0.9288,0.0712	-22867.88
0.9905,0.0095	-22842.29
0.9882,0.0118	-22842.51
0.9813,0.0187	-22847.30
0.9839,0.0161	-22851.23
0.9710,0.0290	-22848.39
0.9386,0.0614	-22858.77
0.9908,0.0092	-22837.59
0.9865,0.0135	-22842.69
0.9808,0.0192	-22847.34
0.9851,0.0149	-22842.86
0.9734,0.0266	-22840.90
0.9508,0.0492	-22863.13
0.9900,0.0100	-22837.74
0.9819,0.0181	-22847.26
0.9793,0.0207	-22851.33
0.9849,0.0151	-22838.70
0.9706,0.0294	-22855.42
0.9414,0.0586	-22861.16
0.9894,0.0106	-22842.39
0.9845,0.0155	-22847.08
0.9766,0.0234	-22855.20
0.9845,0.0155	-22842.93
0.9740,0.0260	-22855.27
0.9356,0.0644	-22864.54
0.9890,0.0110	-22837.92
0.9839,0.0161	-22843.00
0.9751,0.0249	-22844.24
0.9842,0.0158	-22847.10
0.9725,0.0275	-22844.63
0.9244,0.0756	-22870.87
0.9877,0.0123	-22842.56
0.9789,0.0211	-22851.35
0.9770,0.0230	-22847.70
0.9860,0.0140	-22847.00
0.9771,0.0229	-22843.94
0.9382,0.0618	-22856.10
0.9889,0.0111	-22855.91
0.9767,0.0233	-22851.47
0.9759,0.0241	-22844.11
0.9869,0.0131	-22846.96
0.9780,0.0220	-22840.00
0.9500,0.0500	-22860.25
0.9868,0.0132	-22846.97
0.9758,0.0242	-22862.61
0.9728,0.0272	-22851.74
0.9859,0.0141	-22838.51
0.9814,0.0186	-22839.37
0.9513,0.0487	-22857.15
0.9883,0.0117	-22842.49
0.9788,0.0212	-22855.19
0.9742,0.0258	-22844.37
0.9890,0.0110	-22842.43
0.9824,0.0176	-22851.24
0.9525,0.0475	-22851.01
0.9902,0.0098	-22837.70
0.9746,0.0254	-22862.55
0.9767,0.0233	-22855.20
0.9885,0.0115	-22842.48
0.9833,0.0167	-22847.15
0.9530,0.0470	-22862.97
0.9897,0.0103	-22846.93
0.9766,0.0234	-22851.47
0.9788,0.0212	-22843.68
0.9862,0.0138	-22846.99
0.9804,0.0196	-22843.46
0.9587,0.0413	-22846.92
0.9896,0.0104	-22842.37
0.9771,0.0229	-22840.19
0.9775,0.0225	-22847.65
0.9888,0.0112	-22846.93
0.9834,0.0166	-22855.31
0.9641,0.0359	-22849.29
0.9920,0.0080	-22842.19
0.9763,0.0237	-22858.93
0.9785,0.0215	-22859.00
0.9892,0.0108	-22842.41
0.9829,0.0171	-22847.18
0.9432,0.0568	-22866.58
0.9914,0.0086	-22851.72
0.9798,0.0202	-22855.19
0.9778,0.0222	-22840.05
0.9888,0.0112	-22851.41
0.9795,0.0205	-22859.05
0.9502,0.0498	-22863.17
0.9929,0.0071	-22842.14
0.9845,0.0155	-22842.93
0.9811,0.0189	-22851.27
0.9916,0.0084	-22837.43
0.9782,0.0218	-22851.39
0.9448,0.0552	-22860.78
0.9949,0.0051	-22842.10
0.9845,0.0155	-22838.77
0.9816,0.0184	-22847.28
0.9918,0.0082	-22842.20
0.9781,0.0219	-22847.59
0.9460,0.0540	-22863.51
0.9950,0.0050	-22847.39
0.9859,0.0141	-22847.00
0.9820,0.0180	-22851.24
0.9927,0.0073	-22842.15
0.9789,0.0211	-22843.68
0.9460,0.0540	-22854.92
0.9955,0.0045	-22842.12
0.9825,0.0175	-22855.26
0.9817,0.0183	-22843.29
0.9932,0.0068	-22837.15
0.9815,0.0185	-22851.26
0.9587,0.0413	-22868.93
0.9966,0.0034	-22842.19
0.9813,0.0187	-22855.22
0.9857,0.0143	-22847.01
0.9910,0.0090	-22846.96
0.9852,0.0148	-22847.04
0.9537,0.0463	-22847.80
0.9966,0.0034	-22842.20
0.9788,0.0212	-22843.69
0.9894,0.0106	-22842.39
0.9895,0.0105	-22842.38
0.9877,0.0123	-22842.56
0.9590,0.0410	-22853.18
0.9970,0.0030	-22836.44
0.9836,0.0164	-22847.13
0.9886,0.0114	-22837.99
0.9863,0.0137	-22846.99
0.9886,0.0114	-22838.00
0.9531,0.0469	-22865.98
0.9971,0.0029	-22842.27
0.9834,0.0166	-22838.98
0.9887,0.0113	-22837.98
0.9857,0.0143	-22847.01
0.9897,0.0103	-22846.93
0.9577,0.0423	-22868.93
0.9965,0.0035	-22836.54
0.9836,0.0164	-22855.32
0.9892,0.0108	-22855.96
0.9885,0.0115	-22842.48
0.9914,0.0086	-22842.23
0.9630,0.0370	-22869.00
0.9971,0.0029	-22836.42
0.9845,0.0155	-22847.08
0.9906,0.0094	-22846.94
0.9892,0.0108	-22842.40
0.9918,0.0082	-22837.41
0.9697,0.0303	-22845.08
0.9970,0.0030	-22842.25
0.9857,0.0143	-22851.25
0.9911,0.0089	-22837.53
0.9900,0.0100	-22846.93
0.9916,0.0084	-22842.21
0.9660,0.0340	-22849.03
0.9965,0.0035	-22836.54
0.9831,0.0169	-22855.29
0.9928,0.0072	-22837.21
0.9920,0.0080	-22847.01
0.9932,0.0068	-22847.11
0.9722,0.0278	-22841.12
0.9966,0.0034	-22836.51
0.9807,0.0193	-22855.21
0.9922,0.0078	-22837.33
0.9941,0.0059	-22842.10
0.9942,0.0058	-22842.10
0.9717,0.0283	-22865.98
0.9966,0.0034	-22836.51
0.9828,0.0172	-22863.36
0.9927,0.0073	-22837.25
0.9947,0.0053	-22836.87
0.9936,0.0064	-22847.16
0.9664,0.0336	-22852.33
0.9957,0.0043	-22836.67
0.9821,0.0179	-22843.23
0.9929,0.0071	-22842.14
0.9937,0.0063	-22837.05
0.9929,0.0071	-22837.20
0.9659,0.0341	-22862.42
0.9960,0.0040	-22836.63
0.9830,0.0170	-22839.05
0.9938,0.0062	-22837.03
0.9928,0.0072	-22852.00
0.9938,0.0062	-22837.04
0.9644,0.0356	-22855.84
0.9950,0.0050	-22836.80
0.9811,0.0189	-22851.27
0.9936,0.0064	-22837.08
0.9925,0.0075	-22851.92
0.9953,0.0047	-22836.75
0.9780,0.0220	-22843.80
0.9948,0.0052	-22836.84
0.9790,0.0210	-22839.82
0.9945,0.0055	-22836.90
0.9911,0.0089	-22846.96
0.9952,0.0048	-22836.77
0.9773,0.0227	-22851.43
0.9940,0.0060	-22837.00
0.9838,0.0162	-22838.90
0.9944,0.0056	-22836.93
0.9905,0.0095	-22842.29
0.9944,0.0056	-22836.92
0.9829,0.0171	-22843.13
0.9959,0.0041	-22842.13
0.9851,0.0149	-22863.82
0.9941,0.0059	-22836.97
0.9882,0.0118	-22838.08
0.9941,0.0059	-22836.97
0.9820,0.0180	-22855.25
0.9949,0.0051	-22836.83
0.9867,0.0133	-22846.97
0.9933,0.0067	-22842.13
0.9831,0.0169	-22855.29
0.9938,0.0062	-22842.11
0.9831,0.0169	-22843.11
0.9923,0.0077	-22837.32
0.9879,0.0121	-22846.94
0.9910,0.0090	-22837.55
0.9869,0.0131	-22855.61
0.9937,0.0063	-22837.05
0.9785,0.0215	-22851.37
0.9923,0.0077	-22842.17
0.9865,0.0135	-22846.98
0.9890,0.0110	-22837.93
0.9861,0.0139	-22847.00
0.9930,0.0070	-22837.19
0.9737,0.0263	-22848.06
0.9897,0.0103	-22846.93
0.9889,0.0111	-22842.43
0.9872,0.0128	-22842.61
0.9863,0.0137	-22855.54
0.9937,0.0063	-22847.17
0.9738,0.0262	-22851.66
0.9900,0.0100	-22851.52
0.9811,0.0189	-22847.32
0.9830,0.0170	-22847.18
0.9865,0.0135	-22846.98
0.9923,0.0077	-22837.31
0.9800,0.0200	-22847.41
0.9903,0.0097	-22837.68
0.9857,0.0143	-22838.55
0.9779,0.0221	-22851.40
0.9865,0.0135	-22842.69
0.9924,0.0076	-22842.16
0.9778,0.0222	-22855.19
0.9909,0.0091	-22842.27
0.9840,0.0160	-22842.99
0.9796,0.0204	-22862.94
0.9857,0.0143	-22842.78
0.9920,0.0080	-22842.19
0.9810,0.0190	-22839.44
0.9880,0.0120	-22842.52
0.9792,0.0208	-22843.63
0.9819,0.0181	-22855.24
0.9856,0.0144	-22855.47
0.9926,0.0074	-22842.16
0.9829,0.0171	-22847.18
0.9841,0.0159	-22855.35
0.9860,0.0140	-22842.75
0.9789,0.0211	-22847.51
0.9809,0.0191	-22851.27
0.9912,0.0088	-22837.52
0.9839,0.0161	-22855.34
0.9854,0.0146	-22842.81
0.9848,0.0152	-22842.89
0.9779,0.0221	-22851.40
0.9787,0.0213	-22843.71
0.9920,0.0080	-22847.01
0.9849,0.0151	-22851.23
0.9843,0.0157	-22847.09
0.9866,0.0134	-22846.98
0.9785,0.0215	-22847.55
0.9734,0.0266	-22855.29
0.9913,0.0087	-22837.49
0.9879,0.0121	-22846.94
0.9863,0.0137	-22838.43
0.9860,0.0140	-22847.00
0.9774,0.0226	-22855.19
0.9820,0.0180	-22847.25
0.9906,0.0094	-22837.63
0.9863,0.0137	-22846.99
0.9851,0.0149	-22847.04
0.9848,0.0152	-22855.40
0.9813,0.0187	-22847.30
0.9793,0.0207	-22855.19
0.9919,0.0081	-22837.38
0.9826,0.0174	-22839.14
0.9857,0.0143	-22842.78
0.9857,0.0143	-22847.01
0.9801,0.0199	-22843.51
0.9799,0.0201	-22843.53
0.9933,0.0067	-22842.12
0.9792,0.0208	-22847.48
0.9872,0.0128	-22846.96
0.9864,0.0136	-22855.55
0.9864,0.0136	-22846.98
0.9771,0.0229	-22847.69
0.9936,0.0064	-22842.11
0.9758,0.0242	-22851.52
0.9913,0.0087	-22846.97
0.9854,0.0146	-22851.24
0.9863,0.0137	-22842.71
0.9758,0.0242	-22844.12
0.9950,0.0050	-22836.81
0.9679,0.0321	-22862.40
0.9909,0.0091	-22837.57
0.9819,0.0181	-22843.26
0.9858,0.0142	-22855.49
0.9821,0.0179	-22843.23
0.9939,0.0061	-22847.20
0.9655,0.0345	-22849.10
0.9908,0.0092	-22842.27
0.9761,0.0239	-22855.21
0.9804,0.0196	-22855.20
0.9785,0.0215	-22855.19
0.9936,0.0064	-22837.07
0.9731,0.0269	-22855.31
0.9915,0.0085	-22846.98
0.9784,0.0216	-22851.37
0.9861,0.0139	-22847.00
0.9768,0.0232	-22851.46
0.9938,0.0062	-22837.04
0.9806,0.0194	-22847.36
0.9929,0.0071	-22847.08
0.9807,0.0193	-22847.35
0.9866,0.0134	-22838.37
0.9772,0.0228	-22855.19
0.9927,0.0073	-22842.15
0.9779,0.0221	-22851.40
0.9927,0.0073	-22842.15
0.9810,0.0190	-22859.16
0.9833,0.0167	-22843.07
0.9795,0.0205	-22855.19
0.9909,0.0091	-22837.57
0.9768,0.0232	-22855.20
0.9909,0.0091	-22837.58
0.9756,0.0244	-22840.47
0.9855,0.0145	-22851.24
0.9751,0.0249	-22840.56
0.9900,0.0100	-22842.33
0.9801,0.0199	-22851.30
0.9887,0.0113	-22842.46
0.9726,0.0274	-22866.03
0.9834,0.0166	-22843.07
0.9796,0.0204	-22855.19
0.9865,0.0135	-22842.69
0.9797,0.0203	-22851.32
0.9879,0.0121	-22846.94
0.9680,0.0320	-22845.36
0.9818,0.0182	-22847.26
0.9812,0.0188	-22843.35
0.9880,0.0120	-22846.94
0.9811,0.0189	-22843.37
0.9900,0.0100	-22842.33
0.9689,0.0311	-22848.65
0.9813,0.0187	-22855.22
0.9798,0.0202	-22855.19
0.9880,0.0120	-22855.76
0.9809,0.0191	-22847.33
0.9932,0.0068	-22837.14
0.9617,0.0383	-22849.63
0.9780,0.0220	-22840.01
0.9774,0.0226	-22843.89
0.9894,0.0106	-22837.84
0.9836,0.0164	-22851.23
0.9924,0.0076	-22847.04
0.9439,0.0561	-22866.52
0.9771,0.0229	-22851.44
0.9830,0.0170	-22851.23
0.9921,0.0079	-22842.18
0.9847,0.0153	-22842.90
0.9920,0.0080	-22842.19
0.9504,0.0496	-22866.11
0.9789,0.0211	-22843.67
0.9814,0.0186	-22847.29
0.9909,0.0091	-22846.95
0.9893,0.0107	-22842.40
0.9930,0.0070	-22837.17
0.9395,0.0605	-22864.12
0.9776,0.0224	-22851.41
0.9847,0.0153	-22851.23
0.9916,0.0084	-22842.21
0.9877,0.0123	-22846.94
0.9909,0.0091	-22842.26
0.9348,0.0652	-22872.61
0.9732,0.0268	-22844.53
0.9845,0.0155	-22851.23
0.9908,0.0092	-22842.27
0.9919,0.0081	-22847.00
0.9917,0.0083	-22846.99
0.9323,0.0677	-22872.77
0.9735,0.0265	-22858.89
0.9882,0.0118	-22842.50
0.9925,0.0075	-22837.28
0.9913,0.0087	-22837.50
0.9906,0.0094	-22842.28
0.9404,0.0596	-22877.83
0.9700,0.0300	-22862.41
0.9852,0.0148	-22851.24
0.9938,0.0062	-22837.03
0.9900,0.0100	-22842.34
0.9889,0.0111	-22842.43
0.9514,0.0486	-22872.01
0.9684,0.0316	-22845.29
0.9853,0.0147	-22842.83
0.9942,0.0058	-22836.95
0.9891,0.0109	-22851.44
0.9900,0.0100	-22856.11
0.9561,0.0439	-22865.86
0.9649,0.0351	-22859.12
0.9837,0.0163	-22847.13
0.9937,0.0063	-22842.11
0.9901,0.0099	-22842.33
0.9884,0.0116	-22842.49
0.9452,0.0548	-22863.58
0.9731,0.0269	-22851.72
0.9857,0.0143	-22851.25
0.9926,0.0074	-22842.15
0.9892,0.0108	-22842.41
0.9880,0.0120	-22838.11
0.9459,0.0541	-22854.94
0.9713,0.0287	-22841.29
0.9833,0.0167	-22847.15
0.9921,0.0079	-22837.35
0.9869,0.0131	-22851.29
0.9846,0.0154	-22855.39
0.9559,0.0441	-22856.64
0.9730,0.0270	-22851.72
0.9841,0.0159	-22842.98
0.9906,0.0094	-22846.94
0.9864,0.0136	-22846.98
0.9856,0.0144	-22842.80
0.9485,0.0515	-22863.31
0.9705,0.0295	-22858.92
0.9843,0.0157	-22847.09
0.9891,0.0109	-22846.92
0.9852,0.0148	-22847.04
0.9850,0.0150	-22838.68
0.9544,0.0456	-22856.80
0.9657,0.0343	-22855.74
0.9886,0.0114	-22842.47
0.9867,0.0133	-22855.58
0.9851,0.0149	-22842.86
0.9884,0.0116	-22846.93
0.9514,0.0486	-22857.14
0.9692,0.0308	-22848.61
0.9903,0.0097	-22842.31
0.9876,0.0124	-22838.19
0.9867,0.0133	-22842.67
0.9902,0.0098	-22837.70
0.9510,0.0490	-22872.01
0.9686,0.0314	-22845.26
0.9907,0.0093	-22842.28
0.9872,0.0128	-22838.26
0.9863,0.0137	-22855.54
0.9894,0.0106	-22842.39
0.9607,0.0393	-22859.36
0.9695,0.0305	-22858.95
0.9898,0.0102	-22837.79
0.9862,0.0138	-22842.72
0.9835,0.0165	-22847.14
0.9879,0.0121	-22846.94
0.9609,0.0391	-22856.15
0.9734,0.0266	-22848.09
0.9882,0.0118	-22842.51
0.9864,0.0136	-22842.70
0.9899,0.0101	-22846.93
0.9848,0.0152	-22838.72
0.9525,0.0475	-22866.00
0.9724,0.0276	-22848.21
0.9874,0.0126	-22851.31
0.9868,0.0132	-22838.35
0.9899,0.0101	-22851.52
0.9852,0.0148	-22838.64
0.9567,0.0433	-22862.75
0.9745,0.0255	-22844.32
0.9897,0.0103	-22842.36
0.9853,0.0147	-22847.03
0.9874,0.0126	-22842.59
0.9875,0.0125	-22842.58
0.9633,0.0367	-22855.93
0.9775,0.0225	-22840.10
0.9892,0.0108	-22842.41
0.9836,0.0164	-22847.13
0.9872,0.0128	-22838.27
0.9881,0.0119	-22842.51
0.9619,0.0381	-22849.59
0.9812,0.0188	-22855.22
0.9882,0.0118	-22838.08
0.9870,0.0130	-22842.64
0.9886,0.0114	-22838.00
0.9857,0.0143	-22842.78
0.9639,0.0361	-22862.46
0.9740,0.0260	-22848.02
0.9874,0.0126	-22838.23
0.9890,0.0110	-22842.42
0.9897,0.0103	-22846.93
0.9866,0.0134	-22842.67
0.9601,0.0399	-22862.58
0.9709,0.0291	-22855.41
0.9895,0.0105	-22851.48
0.9894,0.0106	-22846.93
0.9894,0.0106	-22851.46
0.9886,0.0114	-22855.84
0.9615,0.0385	-22859.31
0.9682,0.0318	-22855.57
0.9907,0.0093	-22837.61
0.9913,0.0087	-22837.50
0.9905,0.0095	-22837.64
0.9900,0.0100	-22842.33
0.9552,0.0448	-22865.89
0.9714,0.0286	-22855.38
0.9889,0.0111	-22842.44
0.9945,0.0055	-22836.90
0.9916,0.0084	-22837.45
0.9893,0.0107	-22837.87
0.9592,0.0408	-22859.46
0.9734,0.0266	-22844.49
0.9869,0.0131	-22846.97
0.9940,0.0060	-22842.10
0.9904,0.0096	-22837.67
0.9921,0.0079	-22842.18
0.9673,0.0327	-22848.85
0.9745,0.0255	-22858.90
0.9890,0.0110	-22846.93
0.9937,0.0063	-22842.11
0.9926,0.0074	-22842.15
0.9907,0.0093	-22842.28
0.9674,0.0326	-22848.84
0.9587,0.0413	-22859.50
0.9872,0.0128	-22855.65
0.9952,0.0048	-22842.11
0.9928,0.0072	-22837.22
0.9897,0.0103	-22846.93
0.9606,0.0394	-22856.18
0.9635,0.0365	-22862.46
0.9817,0.0183	-22843.29
0.9947,0.0053	-22836.86
0.9925,0.0075	-22842.16
0.9895,0.0105	-22842.38
0.9547,0.0453	-22862.86
0.9606,0.0394	-22862.56
0.9810,0.0190	-22843.39
0.9953,0.0047	-22842.11
0.9920,0.0080	-22842.19
0.9858,0.0142	-22847.01
0.9621,0.0379	-22856.04
0.9641,0.0359	-22865.74
0.9836,0.0164	-22851.23
0.9947,0.0053	-22836.87
0.9932,0.0068	-22837.14
0.9853,0.0147	-22838.63
0.9687,0.0313	-22848.68
0.9671,0.0329	-22855.64
0.9843,0.0157	-22842.95
0.9947,0.0053	-22842.10
0.9938,0.0062	-22837.04
0.9878,0.0122	-22846.94
0.9687,0.0313	-22858.97
0.9606,0.0394	-22852.99
0.9830,0.0170	-22839.05
0.9952,0.0048	-22836.78
0.9921,0.0079	-22842.18
0.9870,0.0130	-22838.29
0.9699,0.0301	-22852.00
0.9639,0.0361	-22852.60
0.9797,0.0203	-22839.69
0.9949,0.0051	-22847.39
0.9905,0.0095	-22842.30
0.9865,0.0135	-22846.98
0.9687,0.0313	-22848.67
0.9645,0.0355	-22845.93
0.9817,0.0183	-22851.25
0.9954,0.0046	-22836.75
0.9897,0.0103	-22842.36
0.9849,0.0151	-22847.05
0.9722,0.0278	-22869.57
0.9639,0.0361	-22872.31
0.9803,0.0197	-22847.39
0.9952,0.0048	-22842.11
0.9918,0.0082	-22842.20
0.9872,0.0128	-22846.96
0.9729,0.0271	-22848.15
0.9653,0.0347	-22872.40
0.9785,0.0215	-22839.92
0.9951,0.0049	-22842.11
0.9912,0.0088	-22842.24
0.9873,0.0127	-22846.95
0.9761,0.0239	-22844.08
0.9740,0.0260	-22851.65
0.9784,0.0216	-22851.37
0.9947,0.0053	-22842.10
0.9919,0.0081	-22837.38
0.9876,0.0124	-22846.95
0.9821,0.0179	-22847.24
0.9780,0.0220	-22843.80
0.9783,0.0217	-22855.19
0.9945,0.0055	-22836.91
0.9922,0.0078	-22842.17
0.9893,0.0107	-22846.92
0.9849,0.0151	-22847.05
0.9736,0.0264	-22866.11
0.9766,0.0234	-22844.01
0.9932,0.0068	-22837.14
0.9912,0.0088	-22837.51
0.9921,0.0079	-22837.35
0.9865,0.0135	-22842.69
0.9751,0.0249	-22844.23
0.9780,0.0220	-22847.60
0.9943,0.0057	-22842.10
0.9883,0.0117	-22842.50
0.9911,0.0089	-22851.68
0.9866,0.0134	-22846.98
0.9813,0.0187	-22851.26
0.9738,0.0262	-22851.66
0.9943,0.0057	-22842.10
0.9894,0.0106	-22842.39
0.9888,0.0112	-22846.93
0.9847,0.0153	-22847.07
0.9814,0.0186	-22839.37
0.9763,0.0237	-22844.06
0.9930,0.0070	-22842.13
0.9919,0.0081	-22842.19
0.9909,0.0091	-22846.95
0.9824,0.0176	-22847.21
0.9821,0.0179	-22851.24
0.9787,0.0213	-22851.36
0.9924,0.0076	-22837.29
0.9922,0.0078	-22837.33
0.9893,0.0107	-22837.87
0.9844,0.0156	-22847.08
0.9768,0.0232	-22855.20
0.9793,0.0207	-22847.48
0.9920,0.0080	-22837.37
0.9933,0.0067	-22837.13
0.9901,0.0099	-22851.54
0.9856,0.0144	-22842.79
0.9804,0.0196	-22851.29
0.9801,0.0199	-22855.20
0.9909,0.0091	-22846.95
0.9915,0.0085	-22837.46
0.9909,0.0091	-22837.58
0.9898,0.0102	-22851.50
0.9775,0.0225	-22847.65
0.9790,0.0210	-22843.66
0.9908,0.0092	-22846.95
0.9918,0.0082	-22842.20
0.9912,0.0088	-22842.24
0.9884,0.0116	-22846.93
0.9702,0.0298	-22848.48
0.9800,0.0200	-22847.41
0.9899,0.0101	-22837.76
0.9936,0.0064	-22837.07
0.9929,0.0071	-22852.01
0.9878,0.0122	-22860.13
0.9698,0.0302	-22855.47
0.9715,0.0285	-22865.97
0.9883,0.0117	-22842.49
0.9928,0.0072	-22837.22
0.9932,0.0068	-22837.14
0.9906,0.0094	-22856.27
0.9729,0.0271	-22858.89
0.9667,0.0333	-22859.04
0.9853,0.0147	-22847.03
0.9902,0.0098	-22846.93
0.9915,0.0085	-22861.27
0.9905,0.0095	-22842.29
0.9704,0.0296	-22855.43
0.9591,0.0409	-22872.09
0.9859,0.0141	-22842.76
0.9919,0.0081	-22837.38
0.9914,0.0086	-22842.22
0.9903,0.0097	-22865.43
0.9610,0.0390	-22856.13
0.9572,0.0428	-22859.61
0.9845,0.0155	-22842.92
0.9947,0.0053	-22836.87
0.9892,0.0108	-22842.40
0.9887,0.0113	-22846.93
0.9595,0.0405	-22865.77
0.9476,0.0524	-22860.48
0.9806,0.0194	-22859.12
0.9949,0.0051	-22842.10
0.9913,0.0087	-22842.23
0.9899,0.0101	-22851.51
0.9595,0.0405	-22868.94
0.9495,0.0505	-22872.03
0.9817,0.0183	-22855.23
0.9946,0.0054	-22836.89
0.9906,0.0094	-22837.62
0.9903,0.0097	-22837.69
0.9664,0.0336	-22862.41
0.9395,0.0605	-22869.61
0.9831,0.0169	-22855.29
0.9928,0.0072	-22852.00
0.9897,0.0103	-22837.79
0.9894,0.0106	-22842.39
0.9613,0.0387	-22852.90
0.9440,0.0560	-22863.69
0.9803,0.0197	-22843.48
0.9927,0.0073	-22837.24
0.9889,0.0111	-22842.43
0.9900,0.0100	-22837.73
0.9570,0.0430	-22856.52
0.9528,0.0472	-22865.99
0.9833,0.0167	-22847.15
0.9922,0.0078	-22837.33
0.9852,0.0148	-22842.84
0.9900,0.0100	-22837.75
0.9590,0.0410	-22862.63
0.9628,0.0372	-22862.48
0.9813,0.0187	-22851.26
0.9913,0.0087	-22846.97
0.9841,0.0159	-22838.85
0.9901,0.0099	-22846.93
0.9514,0.0486	-22857.14
0.9532,0.0468	-22859.94
0.9805,0.0195	-22851.28
0.9914,0.0086	-22846.97
0.9831,0.0169	-22843.11
0.9883,0.0117	-22838.06
0.9490,0.0510	-22866.19
0.9428,0.0572	-22861.00
0.9803,0.0197	-22855.20
0.9909,0.0091	-22837.57
0.9827,0.0173	-22843.16
0.9871,0.0129	-22846.96
0.9387,0.0613	-22866.93
0.9464,0.0536	-22866.35
0.9791,0.0209	-22855.19
0.9902,0.0098	-22856.17
0.9845,0.0155	-22847.08
0.9848,0.0152	-22838.72
0.9209,0.0791	-22863.87
0.9444,0.0556	-22863.66
0.9824,0.0176	-22855.26
0.9909,0.0091	-22837.56
0.9835,0.0165	-22847.14
0.9865,0.0135	-22842.69
0.9222,0.0778	-22858.74
0.9545,0.0455	-22872.01
0.9829,0.0171	-22843.12
0.9899,0.0101	-22842.35
0.9879,0.0121	-22851.34
0.9894,0.0106	-22837.86
0.9194,0.0806	-22873.82
0.9508,0.0492	-22863.13
0.9871,0.0129	-22859.96
0.9922,0.0078	-22837.32
0.9882,0.0118	-22842.51
0.9889,0.0111	-22842.43
0.9139,0.0861	-22876.73
0.9526,0.0474	-22856.99
0.9860,0.0140	-22851.26
0.9925,0.0075	-22842.16
0.9830,0.0170	-22843.11
0.9912,0.0088	-22842.24
0.9110,0.0890	-22879.32
0.9582,0.0418	-22856.41
0.9871,0.0129	-22838.29
0.9927,0.0073	-22842.15
0.9808,0.0192	-22839.48
0.9901,0.0099	-22837.71
0.8990,0.1010	-22889.20
0.9578,0.0422	-22856.45
0.9846,0.0154	-22842.91
0.9927,0.0073	-22837.24
0.9816,0.0184	-22847.28
0.9897,0.0103	-22842.36
0.9204,0.0796	-22878.62
0.9583,0.0417	-22853.26
0.9870,0.0130	-22842.63
0.9940,0.0060	-22852.32
0.9781,0.0219	-22847.59
0.9884,0.0116	-22842.49
0.9308,0.0692	-22888.47
0.9635,0.0365	-22852.65
0.9894,0.0106	-22837.84
0.9927,0.0073	-22837.24
0.9784,0.0216	-22839.92
0.9907,0.0093	-22842.27
0.9405,0.0595	-22869.54
0.9665,0.0335	-22862.41
0.9890,0.0110	-22842.43
0.9917,0.0083	-22842.21
0.9778,0.0222	-22847.62
0.9891,0.0109	-22837.90
0.9479,0.0521	-22869.16
0.9634,0.0366	-22869.01
0.9845,0.0155	-22842.92
0.9920,0.0080	-22837.37
0.9822,0.0178	-22843.22
0.9903,0.0097	-22837.68
0.9497,0.0503	-22866.15
0.9662,0.0338	-22855.71
0.9813,0.0187	-22843.34
0.9924,0.0076	-22842.17
0.9824,0.0176	-22847.21
0.9900,0.0100	-22846.93
0.9483,0.0517	-22869.14
0.9654,0.0346	-22849.11
0.9797,0.0203	-22847.44
0.9927,0.0073	-22837.23
0.9799,0.0201	-22847.42
0.9892,0.0108	-22846.92
0.9485,0.0515	-22857.48
0.9668,0.0332	-22862.41
0.9772,0.0228	-22847.68
0.9917,0.0083	-22837.42
0.9718,0.0282	-22841.21
0.9857,0.0143	-22838.56
0.9555,0.0445	-22859.74
0.9647,0.0353	-22849.21
0.9769,0.0231	-22851.46
0.9882,0.0118	-22838.07
0.9735,0.0265	-22855.29
0.9891,0.0109	-22837.90
0.9556,0.0444	-22853.60
0.9700,0.0300	-22855.46
0.9742,0.0258	-22851.63
0.9892,0.0108	-22851.44
0.9697,0.0303	-22865.87
0.9866,0.0134	-22851.28
0.9546,0.0454	-22853.73
0.9684,0.0316	-22858.98
0.9801,0.0199	-22847.40
0.9883,0.0117	-22838.07
0.9721,0.0279	-22855.35
0.9888,0.0112	-22851.41
0.9565,0.0435	-22856.58
0.9724,0.0276	-22855.34
0.9793,0.0207	-22859.05
0.9889,0.0111	-22842.44
0.9741,0.0259	-22844.39
0.9882,0.0118	-22842.50
0.9590,0.0410	-22856.32
0.9741,0.0259	-22848.01
0.9820,0.0180	-22847.24
0.9896,0.0104	-22837.82
0.9735,0.0265	-22848.08
0.9901,0.0099	-22842.33
0.9572,0.0428	-22862.72
0.9799,0.0201	-22847.42
0.9817,0.0183	-22851.25
0.9910,0.0090	-22837.55
0.9754,0.0246	-22855.23
0.9928,0.0072	-22837.21
0.9523,0.0477	-22860.03
0.9800,0.0200	-22843.51
0.9793,0.0207	-22847.47
0.9926,0.0074	-22842.16
0.9783,0.0217	-22855.19
0.9932,0.0068	-22842.13
0.9321,0.0679	-22872.78
0.9831,0.0169	-22843.10
0.9808,0.0192	-22843.41
0.9944,0.0056	-22842.10
0.9795,0.0205	-22851.32
0.9914,0.0086	-22837.48
0.9477,0.0523	-22866.27
0.9819,0.0181	-22847.26
0.9799,0.0201	-22843.53
0.9941,0.0059	-22836.98
0.9835,0.0165	-22847.14
0.9921,0.0079	-22842.18
0.9511,0.0489	-22869.04
0.9840,0.0160	-22842.99
0.9835,0.0165	-22847.14
0.9939,0.0061	-22847.19
0.9794,0.0206	-22855.19
0.9914,0.0086	-22842.23
0.9540,0.0460	-22865.94
0.9825,0.0175	-22843.18
0.9813,0.0187	-22839.38
0.9937,0.0063	-22847.17
0.9819,0.0181	-22843.25
0.9908,0.0092	-22846.95
0.9421,0.0579	-22863.87
0.9813,0.0187	-22843.34
0.9836,0.0164	-22851.23
0.9915,0.0085	-22846.98
0.9799,0.0201	-22847.42
0.9896,0.0104	-22846.93
0.9432,0.0568	-22863.76
0.9835,0.0165	-22847.14
0.9827,0.0173	-22847.20
0.9906,0.0094	-22846.94
0.9703,0.0297	-22855.44
0.9904,0.0096	-22837.67
0.9579,0.0421	-22862.68
0.9782,0.0218	-22839.97
0.9833,0.0167	-22843.08
0.9925,0.0075	-22842.16
0.9609,0.0391	-22856.14
0.9901,0.0099	-22846.93
0.9591,0.0409	-22850.00
0.9775,0.0225	-22843.87
0.9804,0.0196	-22847.37
0.9920,0.0080	-22847.01
0.9629,0.0371	-22862.48
0.9889,0.0111	-22837.95
0.9612,0.0388	-22865.75
0.9762,0.0238	-22844.06
0.9815,0.0185	-22843.31
0.9911,0.0089	-22842.25
0.9683,0.0317	-22852.15
0.9907,0.0093	-22842.28
0.9598,0.0402	-22856.24
0.9704,0.0296	-22855.43
0.9858,0.0142	-22847.01
0.9930,0.0070	-22842.14
0.9709,0.0291	-22851.90
0.9906,0.0094	-22837.63
0.9655,0.0345	-22875.75
0.9689,0.0311	-22852.09
0.9898,0.0102	-22851.50
0.9933,0.0067	-22837.12
0.9689,0.0311	-22848.65
0.9912,0.0088	-22851.68
0.9682,0.0318	-22862.40
0.9714,0.0286	-22851.86
0.9889,0.0111	-22851.42
0.9952,0.0048	-22836.77
0.9637,0.0363	-22855.90
0.9915,0.0085	-22842.22
0.9636,0.0364	-22859.19
0.9751,0.0249	-22847.90
0.9893,0.0107	-22846.92
0.9957,0.0043	-22847.58
0.9654,0.0346	-22859.10
0.9896,0.0104	-22846.93
0.9602,0.0398	-22862.58
0.9762,0.0238	-22858.93
0.9886,0.0114	-22838.01
0.9965,0.0035	-22836.53
0.9765,0.0235	-22851.48
0.9894,0.0106	-22842.39
0.9689,0.0311	-22855.52
0.9714,0.0286	-22855.39
0.9884,0.0116	-22846.93
0.9968,0.0032	-22836.48
0.9820,0.0180	-22871.24
0.9870,0.0130	-22846.96
0.9698,0.0302	-22848.53
0.9738,0.0262	-22851.66
0.9884,0.0116	-22846.93
0.9971,0.0029	-22836.43
0.9814,0.0186	-22847.30
0.9874,0.0126	-22846.95
0.9682,0.0318	-22858.99
0.9685,0.0315	-22848.70
0.9894,0.0106	-22842.39
0.9966,0.0034	-22836.52
0.9806,0.0194	-22847.36
0.9903,0.0097	-22837.68
0.9707,0.0293	-22848.41
0.9614,0.0386	-22852.89
0.9901,0.0099	-22837.73
0.9975,0.0025	-22836.35
0.9797,0.0203	-22851.32
0.9856,0.0144	-22838.57
0.9633,0.0367	-22852.67
0.9576,0.0424	-22875.17
0.9904,0.0096	-22837.66
0.9981,0.0019	-22836.23
0.9806,0.0194	-22843.43
0.9864,0.0136	-22842.70
0.9708,0.0292	-22851.91
0.9496,0.0504	-22866.15
0.9908,0.0092	-22842.27
0.9982,0.0018	-22836.22
0.9781,0.0219	-22855.19
0.9866,0.0134	-22846.98
0.9732,0.0268	-22855.30
0.9514,0.0486	-22854.16
0.9907,0.0093	-22851.61
0.9984,0.0016	-22836.19
0.9751,0.0249	-22851.57
0.9856,0.0144	-22847.02
0.9664,0.0336	-22852.33
0.9628,0.0372	-22855.98
0.9921,0.0079	-22847.02
0.9985,0.0015	-22842.68
0.9749,0.0251	-22840.61
0.9866,0.0134	-22855.58
0.9688,0.0312	-22845.23
0.9607,0.0393	-22852.97
0.9894,0.0106	-22842.39
0.9985,0.0015	-22836.16
0.9811,0.0189	-22851.27
0.9843,0.0157	-22851.23
0.9679,0.0321	-22865.81
0.9641,0.0359	-22852.58
0.9876,0.0124	-22846.94
0.9986,0.0014	-22836.14
0.9855,0.0145	-22855.46
0.9858,0.0142	-22851.25
0.9686,0.0314	-22848.68
0.9649,0.0351	-22849.17
0.9845,0.0155	-22847.08
0.9987,0.0013	-22842.78
0.9861,0.0139	-22846.99
0.9865,0.0135	-22846.98
0.9793,0.0207	-22843.62
0.9652,0.0348	-22862.43
0.9842,0.0158	-22842.96
0.9985,0.0015	-22842.68
0.9845,0.0155	-22847.08
0.9852,0.0148	-22859.64
0.9789,0.0211	-22843.67
0.9608,0.0392	-22862.55
0.9849,0.0151	-22842.88
0.9984,0.0016	-22836.18
0.9798,0.0202	-22847.43
0.9828,0.0172	-22843.14
0.9739,0.0261	-22855.27
0.9647,0.0353	-22859.13
0.9841,0.0159	-22847.10
0.9979,0.0021	-22836.28
0.9777,0.0223	-22843.85
0.9826,0.0174	-22847.20
0.9728,0.0272	-22855.32
0.9712,0.0288	-22851.88
0.9820,0.0180	-22851.24
0.9970,0.0030	-22836.44
0.9771,0.0229	-22847.69
0.9828,0.0172	-22851.23
0.9684,0.0316	-22855.56
0.9633,0.0367	-22855.94
0.9760,0.0240	-22847.80
0.9961,0.0039	-22847.70
0.9746,0.0254	-22844.32
0.9768,0.0232	-22855.20
0.9685,0.0315	-22855.55
0.9662,0.0338	-22855.71
0.9776,0.0224	-22840.08
0.9957,0.0043	-22836.68
0.9739,0.0261	-22855.28
0.9675,0.0325	-22855.62
0.9594,0.0406	-22862.61
0.9696,0.0304	-22858.94
0.9802,0.0198	-22843.49
0.9960,0.0040	-22836.63
0.9756,0.0244	-22851.54
0.9679,0.0321	-22872.62
0.9600,0.0400	-22859.41
0.9632,0.0368	-22865.74
0.9799,0.0201	-22851.31
0.9963,0.0037	-22836.56
0.9805,0.0195	-22843.46
0.9672,0.0328	-22855.64
0.9597,0.0403	-22853.09
0.9595,0.0405	-22862.61
0.9689,0.0311	-22852.08
0.9963,0.0037	-22836.57
0.9801,0.0199	-22847.40
0.9724,0.0276	-22848.21
0.9608,0.0392	-22859.35
0.9589,0.0411	-22859.48
0.9660,0.0340	-22849.03
0.9964,0.0036	-22836.55
0.9724,0.0276	-22855.34
0.9725,0.0275	-22848.20
0.9662,0.0338	-22859.06
0.9599,0.0401	-22853.06
0.9720,0.0280	-22844.71
0.9966,0.0034	-22836.51
0.9723,0.0277	-22851.78
0.9702,0.0298	-22855.45
0.9716,0.0284	-22848.30
0.9533,0.0467	-22862.95
0.9791,0.0209	-22843.65
0.9970,0.0030	-22836.44
0.9761,0.0239	-22847.79
0.9730,0.0270	-22848.14
0.9768,0.0232	-22862.68
0.9604,0.0396	-22859.38
0.9791,0.0209	-22847.50
0.9965,0.0035	-22836.53
0.9761,0.0239	-22851.50
0.9732,0.0268	-22855.30
0.9737,0.0263	-22855.28
0.9687,0.0313	-22862.40
0.9760,0.0240	-22844.10
0.9972,0.0028	-22842.28
0.9729,0.0271	-22848.16
0.9743,0.0257	-22844.35
0.9727,0.0273	-22848.17
0.9718,0.0282	-22858.90
0.9784,0.0216	-22847.56
0.9973,0.0027	-22836.39
0.9757,0.0243	-22855.22
0.9699,0.0301	-22855.46
0.9740,0.0260	-22851.65
0.9740,0.0260	-22855.27
0.9806,0.0194	-22855.20
0.9963,0.0037	-22842.17
0.9735,0.0265	-22855.29
0.9685,0.0315	-22852.12
0.9674,0.0326	-22865.79
0.9724,0.0276	-22844.65
0.9859,0.0141	-22851.25
0.9956,0.0044	-22842.12
0.9729,0.0271	-22848.16
0.9606,0.0394	-22859.36
0.9680,0.0320	-22848.77
0.9768,0.0232	-22855.20
0.9878,0.0122	-22855.73
0.9959,0.0041	-22836.64
0.9743,0.0257	-22858.90
0.9566,0.0434	-22856.56
0.9715,0.0285	-22848.32
0.9743,0.0257	-22851.62
0.9846,0.0154	-22855.38
0.9966,0.0034	-22836.52
0.9789,0.0211	-22851.35
0.9563,0.0437	-22865.85
0.9746,0.0254	-22858.90
0.9795,0.0205	-22855.19
0.9814,0.0186	-22843.33
0.9960,0.0040	-22836.63
0.9766,0.0234	-22840.28
0.9459,0.0541	-22869.25
0.9779,0.0221	-22862.77
0.9757,0.0243	-22847.84
0.9802,0.0198	-22855.20
0.9963,0.0037	-22842.17
0.9692,0.0308	-22845.15
0.9587,0.0413	-22868.93
0.9779,0.0221	-22843.82
0.9720,0.0280	-22858.90
0.9811,0.0189	-22847.32
0.9959,0.0041	-22836.65
0.9779,0.0221	-22843.82
0.9690,0.0310	-22858.96
0.9829,0.0171	-22855.28
0.9688,0.0312	-22852.09
0.9835,0.0165	-22838.97
0.9958,0.0042	-22836.66
0.9842,0.0158	-22842.96
0.9663,0.0337	-22859.05
0.9849,0.0151	-22847.05
0.9626,0.0374	-22852.75
0.9831,0.0169	-22851.23
0.9964,0.0036	-22847.81
0.9831,0.0169	-22847.17
0.9696,0.0304	-22852.02
0.9865,0.0135	-22842.69
0.9642,0.0358	-22845.97
0.9836,0.0164	-22847.13
0.9956,0.0044	-22842.12
0.9849,0.0151	-22838.70
0.9623,0.0377	-22862.50
0.9812,0.0188	-22851.26
0.9636,0.0364	-22859.19
0.9809,0.0191	-22847.33
0.9961,0.0039	-22842.15
0.9811,0.0189	-22843.36
0.9644,0.0356	-22852.55
0.9804,0.0196	-22847.37
0.9645,0.0355	-22869.04
0.9773,0.0227	-22851.43
0.9970,0.0030	-22836.44
0.9844,0.0156	-22842.94
0.9698,0.0302	-22855.47
0.9742,0.0258	-22866.16
0.9694,0.0306	-22848.58
0.9792,0.0208	-22855.19
0.9960,0.0040	-22836.63
0.9831,0.0169	-22855.29
0.9691,0.0309	-22848.61
0.9758,0.0242	-22851.52
0.9672,0.0328	-22855.63
0.9783,0.0217	-22843.76
0.9944,0.0056	-22836.92
0.9806,0.0194	-22847.36
0.9728,0.0272	-22848.16
0.9820,0.0180	-22851.25
0.9735,0.0265	-22866.10
0.9836,0.0164	-22847.13
0.9950,0.0050	-22836.81
0.9804,0.0196	-22859.12
0.9740,0.0260	-22851.65
0.9778,0.0222	-22851.40
0.9662,0.0338	-22865.77
0.9848,0.0152	-22842.88
0.9954,0.0046	-22836.74
0.9739,0.0261	-22851.66
0.9792,0.0208	-22847.48
0.9714,0.0286	-22858.91
0.9717,0.0283	-22848.30
0.9807,0.0193	-22847.35
0.9950,0.0050	-22836.80
0.9783,0.0217	-22851.38
0.9732,0.0268	-22862.49
0.9643,0.0357	-22859.15
0.9723,0.0277	-22844.66
0.9813,0.0187	-22847.30
0.9953,0.0047	-22842.11
0.9731,0.0269	-22851.72
0.9735,0.0265	-22848.08
0.9691,0.0309	-22852.07
0.9701,0.0299	-22845.02
0.9840,0.0160	-22842.99
0.9939,0.0061	-22837.01
0.9790,0.0210	-22847.51
0.9694,0.0306	-22855.49
0.9654,0.0346	-22855.76
0.9733,0.0267	-22840.91
0.9837,0.0163	-22838.92
0.9935,0.0065	-22837.08
0.9757,0.0243	-22851.53
0.9688,0.0312	-22852.10
0.9671,0.0329	-22865.79
0.9756,0.0244	-22858.91
0.9855,0.0145	-22855.46
0.9922,0.0078	-22837.34
0.9773,0.0227	-22843.91
0.9739,0.0261	-22844.42
0.9726,0.0274	-22851.76
0.9750,0.0250	-22851.58
0.9802,0.0198	-22851.30
0.9926,0.0074	-22847.06
0.9764,0.0236	-22851.48
0.9693,0.0307	-22858.95
0.9807,0.0193	-22843.42
0.9765,0.0235	-22844.03
0.9834,0.0166	-22843.07
0.9940,0.0060	-22836.99
0.9768,0.0232	-22858.94
0.9715,0.0285	-22858.91
0.9830,0.0170	-22843.12
0.9758,0.0242	-22851.52
0.9860,0.0140	-22842.75
0.9927,0.0073	-22837.24
0.9780,0.0220	-22847.60
0.9694,0.0306	-22858.95
0.9825,0.0175	-22843.18
0.9768,0.0232	-22847.72
0.9868,0.0132	-22846.97
0.9939,0.0061	-22842.11
0.9809,0.0191	-22851.27
0.9650,0.0350	-22855.80
0.9819,0.0181	-22839.26
0.9783,0.0217	-22847.57
0.9824,0.0176	-22855.26
0.9947,0.0053	-22842.10
0.9854,0.0146	-22838.61
0.9647,0.0353	-22855.82
0.9823,0.0177	-22847.22
0.9771,0.0229	-22843.94
0.9794,0.0206	-22855.19
0.9952,0.0048	-22836.77
0.9876,0.0124	-22846.94
0.9588,0.0412	-22856.35
0.9869,0.0131	-22851.29
0.9732,0.0268	-22851.71
0.9740,0.0260	-22851.65
0.9952,0.0048	-22847.44
0.9864,0.0136	-22864.11
0.9600,0.0400	-22862.58
0.9870,0.0130	-22842.63
0.9710,0.0290	-22848.38
0.9741,0.0259	-22851.64
0.9957,0.0043	-22836.67
0.9874,0.0126	-22851.31
0.9672,0.0328	-22848.87
0.9851,0.0149	-22847.04
0.9736,0.0264	-22851.68
0.9727,0.0273	-22855.32
0.9963,0.0037	-22836.56
0.9826,0.0174	-22863.33
0.9739,0.0261	-22855.28
0.9888,0.0112	-22842.45
0.9664,0.0336	-22852.33
0.9763,0.0237	-22862.65
0.9951,0.0049	-22842.10
0.9845,0.0155	-22838.78
0.9732,0.0268	-22858.89
0.9905,0.0095	-22842.29
0.9726,0.0274	-22851.75
0.9782,0.0218	-22858.99
0.9964,0.0036	-22842.17
0.9801,0.0199	-22843.50
0.9756,0.0244	-22851.53
0.9911,0.0089	-22837.54
0.9811,0.0189	-22847.32
0.9797,0.0203	-22839.68
0.9970,0.0030	-22842.25
0.9793,0.0207	-22847.47
0.9781,0.0219	-22843.79
0.9906,0.0094	-22846.94
0.9784,0.0216	-22851.38
0.9751,0.0249	-22855.24
0.9969,0.0031	-22842.24
0.9777,0.0223	-22877.87
0.9845,0.0155	-22851.23
0.9914,0.0086	-22851.72
0.9777,0.0223	-22862.75
0.9733,0.0267	-22840.91
0.9965,0.0035	-22842.19
0.9744,0.0256	-22847.98
0.9810,0.0190	-22839.45
0.9886,0.0114	-22837.99
0.9768,0.0232	-22847.72
0.9689,0.0311	-22855.52
0.9968,0.0032	-22842.22
0.9739,0.0261	-22851.65
0.9852,0.0148	-22842.84
0.9877,0.0123	-22838.18
0.9771,0.0229	-22858.95
0.9771,0.0229	-22843.94
0.9965,0.0035	-22842.18
0.9733,0.0267	-22851.70
0.9846,0.0154	-22842.91
0.9866,0.0134	-22846.98
0.9762,0.0238	-22840.36
0.9829,0.0171	-22851.23
0.9955,0.0045	-22842.12
0.9762,0.0238	-22862.64
0.9864,0.0136	-22846.98
0.9873,0.0127	-22846.95
0.9739,0.0261	-22855.28
0.9797,0.0203	-22855.19
0.9960,0.0040	-22847.66
0.9751,0.0249	-22855.24
0.9843,0.0157	-22838.81
0.9910,0.0090	-22842.25
0.9653,0.0347	-22849.12
0.9818,0.0182	-22847.26
0.9955,0.0045	-22836.72
0.9766,0.0234	-22844.01
0.9851,0.0149	-22842.85
0.9922,0.0078	-22842.18
0.9704,0.0296	-22851.94
0.9848,0.0152	-22847.06
0.9956,0.0044	-22836.70
0.9746,0.0254	-22847.96
0.9849,0.0151	-22847.06
0.9914,0.0086	-22837.48
0.9748,0.0252	-22855.25
0.9851,0.0149	-22855.43
0.9958,0.0042	-22836.66
0.9737,0.0263	-22844.45
0.9866,0.0134	-22842.68
0.9920,0.0080	-22837.37
0.9705,0.0295	-22844.95
0.9861,0.0139	-22842.73
0.9954,0.0046	-22842.11
0.9751,0.0249	-22847.90
0.9886,0.0114	-22846.93
0.9905,0.0095	-22846.94
0.9692,0.0308	-22845.16
0.9888,0.0112	-22846.93
0.9959,0.0041	-22842.14
0.9786,0.0214	-22843.71
0.9898,0.0102	-22837.78
0.9879,0.0121	-22846.94
0.9690,0.0310	-22852.08
0.9873,0.0127	-22838.25
0.9970,0.0030	-22836.44
0.9756,0.0244	-22851.54
0.9891,0.0109	-22837.90
0.9891,0.0109	-22842.42
0.9697,0.0303	-22852.01
0.9880,0.0120	-22838.12
0.9970,0.0030	-22836.45
0.9754,0.0246	-22858.91
0.9889,0.0111	-22846.93
0.9898,0.0102	-22837.78
0.9694,0.0306	-22848.59
0.9894,0.0106	-22856.00
0.9968,0.0032	-22836.48
0.9735,0.0265	-22851.69
0.9905,0.0095	-22846.94
0.9909,0.0091	-22837.58
0.9753,0.0247	-22844.20
0.9872,0.0128	-22838.26
0.9968,0.0032	-22847.94
0.9734,0.0266	-22855.29
0.9886,0.0114	-22846.93
0.9902,0.0098	-22837.70
0.9661,0.0339	-22862.41
0.9877,0.0123	-22851.33
0.9973,0.0027	-22842.29
0.9741,0.0259	-22848.02
0.9881,0.0119	-22838.10
0.9896,0.0104	-22837.81
0.9660,0.0340	-22852.38
0.9882,0.0118	-22851.36
0.9970,0.0030	-22836.43
0.9851,0.0149	-22842.85
0.9871,0.0129	-22846.96
0.9881,0.0119	-22846.93
0.9702,0.0298	-22851.96
0.9915,0.0085	-22842.22
0.9974,0.0026	-22836.38
0.9862,0.0138	-22838.46
0.9877,0.0123	-22846.94
0.9895,0.0105	-22842.38
0.9684,0.0316	-22855.55
0.9912,0.0088	-22837.51
0.9975,0.0025	-22836.35
0.9872,0.0128	-22842.61
0.9874,0.0126	-22838.22
0.9900,0.0100	-22842.33
0.9687,0.0313	-22862.40
0.9905,0.0095	-22842.30
0.9980,0.0020	-22836.25
0.9849,0.0151	-22838.70
0.9880,0.0120	-22842.52
0.9913,0.0087	-22837.49
0.9736,0.0264	-22848.07
0.9927,0.0073	-22842.15
0.9980,0.0020	-22836.25
0.9831,0.0169	-22847.17
0.9895,0.0105	-22837.83
0.9922,0.0078	-22837.33
0.9753,0.0247	-22847.88
0.9918,0.0082	-22846.99
0.9984,0.0016	-22836.19
0.9831,0.0169	-22839.03
0.9909,0.0091	-22846.95
0.9933,0.0067	-22852.13
0.9744,0.0256	-22840.71
0.9926,0.0074	-22837.25
0.9985,0.0015	-22836.16
0.9816,0.0184	-22847.28
0.9940,0.0060	-22837.00
0.9945,0.0055	-22836.90
0.9709,0.0291	-22848.39
0.9926,0.0074	-22837.26
0.9980,0.0020	-22836.26
0.9796,0.0204	-22859.07
0.9927,0.0073	-22842.15
0.9929,0.0071	-22847.08
0.9721,0.0279	-22862.45
0.9912,0.0088	-22837.52
0.9985,0.0015	-22836.16
0.9823,0.0177	-22851.24
0.9918,0.0082	-22861.39
0.9939,0.0061	-22842.11
0.9783,0.0217	-22839.96
0.9908,0.0092	-22837.59
0.9983,0.0017	-22842.57
0.9830,0.0170	-22851.23
0.9918,0.0082	-22837.41
0.9940,0.0060	-22852.32
0.9808,0.0192	-22843.41
0.9925,0.0075	-22837.28
0.9986,0.0014	-22836.14
0.9847,0.0153	-22851.23
0.9921,0.0079	-22837.34
0.9952,0.0048	-22842.11
0.9814,0.0186	-22843.33
0.9933,0.0067	-22847.12
0.9987,0.0013	-22836.12
0.9869,0.0131	-22851.29
0.9921,0.0079	-22856.68
0.9954,0.0046	-22842.11
0.9806,0.0194	-22859.13
0.9931,0.0069	-22842.13
0.9988,0.0012	-22836.12
0.9879,0.0121	-22838.14
0.9913,0.0087	-22837.49
0.9953,0.0047	-22836.76
0.9793,0.0207	-22851.33
0.9943,0.0057	-22836.94
0.9986,0.0014	-22849.28
0.9900,0.0100	-22842.34
0.9902,0.0098	-22856.17
0.9944,0.0056	-22836.93
0.9747,0.0253	-22844.29
0.9937,0.0063	-22847.17
0.9988,0.0012	-22842.82
0.9912,0.0088	-22851.69
0.9909,0.0091	-22837.58
0.9927,0.0073	-22837.24
0.9746,0.0254	-22851.60
0.9950,0.0050	-22842.10
0.9987,0.0013	-22836.12
0.9899,0.0101	-22837.76
0.9916,0.0084	-22842.21
0.9926,0.0074	-22837.26
0.9723,0.0277	-22855.34
0.9960,0.0040	-22842.14
0.9984,0.0016	-22836.18
0.9886,0.0114	-22846.93
0.9913,0.0087	-22837.49
0.9907,0.0093	-22837.61
0.9726,0.0274	-22848.19
0.9950,0.0050	-22836.81
0.9983,0.0017	-22836.20
0.9876,0.0124	-22851.32
0.9899,0.0101	-22842.34
0.9928,0.0072	-22837.21
0.9645,0.0355	-22859.14
0.9943,0.0057	-22842.10
0.9986,0.0014	-22836.14
0.9874,0.0126	-22846.95
0.9904,0.0096	-22842.30
0.9949,0.0051	-22836.84
0.9598,0.0402	-22853.08
0.9926,0.0074	-22847.06
0.9984,0.0016	-22836.18
0.9875,0.0125	-22846.95
0.9884,0.0116	-22846.93
0.9953,0.0047	-22836.75
0.9619,0.0381	-22859.29
0.9921,0.0079	-22851.85
0.9985,0.0015	-22836.17
0.9839,0.0161	-22847.12
0.9863,0.0137	-22842.71
0.9966,0.0034	-22842.20
0.9521,0.0479	-22863.03
0.9910,0.0090	-22842.25
0.9984,0.0016	-22836.18
0.9852,0.0148	-22851.24
0.9871,0.0129	-22838.29
0.9968,0.0032	-22836.47
0.9483,0.0517	-22863.32
0.9902,0.0098	-22846.93
0.9984,0.0016	-22836.19
0.9833,0.0167	-22851.23
0.9831,0.0169	-22851.23
0.9960,0.0040	-22842.14
0.9549,0.0451	-22859.80
0.9887,0.0113	-22842.46
0.9983,0.0017	-22836.19
0.9823,0.0177	-22851.24
0.9833,0.0167	-22847.15
0.9972,0.0028	-22836.40
0.9436,0.0564	-22855.27
0.9849,0.0151	-22851.23
0.9986,0.0014	-22836.14
0.9848,0.0152	-22838.72
0.9809,0.0191	-22843.39
0.9964,0.0036	-22842.17
0.9369,0.0631	-22864.39
0.9868,0.0132	-22855.60
0.9988,0.0012	-22842.86
0.9842,0.0158	-22842.97
0.9767,0.0233	-22851.47
0.9964,0.0036	-22847.79
0.9271,0.0729	-22870.61
0.9881,0.0119	-22846.93
0.9988,0.0012	-22836.10
0.9818,0.0182	-22859.23
0.9723,0.0277	-22851.78
0.9946,0.0054	-22842.10
0.9188,0.0812	-22878.73
0.9890,0.0110	-22842.42
0.9990,0.0010	-22836.07
0.9789,0.0211	-22847.51
0.9727,0.0273	-22844.61
0.9959,0.0041	-22842.14
0.9196,0.0804	-22888.43
0.9889,0.0111	-22837.95
0.9990,0.0010	-22836.07
0.9749,0.0251	-22855.24
0.9755,0.0245	-22844.17
0.9967,0.0033	-22836.49
0.9171,0.0829	-22883.66
0.9881,0.0119	-22846.93
0.9991,0.0009	-22836.06
0.9756,0.0244	-22851.53
0.9786,0.0214	-22843.72
0.9972,0.0028	-22836.41
0.9287,0.0713	-22867.90
0.9819,0.0181	-22847.25
0.9987,0.0013	-22842.78
0.9721,0.0279	-22844.70
0.9778,0.0222	-22855.19
0.9967,0.0033	-22836.50
0.9217,0.0783	-22885.94
0.9822,0.0178	-22839.21
0.9989,0.0011	-22836.10
0.9663,0.0337	-22848.99
0.9800,0.0200	-22851.30
0.9967,0.0033	-22842.20
0.9222,0.0778	-22868.62
0.9833,0.0167	-22851.23
0.9990,0.0010	-22836.08
0.9748,0.0252	-22855.25
0.9809,0.0191	-22855.21
0.9959,0.0041	-22836.64
0.9367,0.0633	-22875.19
0.9843,0.0157	-22842.95
0.9988,0.0012	-22836.10
0.9761,0.0239	-22858.92
0.9804,0.0196	-22855.20
0.9946,0.0054	-22842.10
0.9267,0.0733	-22865.58
0.9854,0.0146	-22851.24
0.9989,0.0011	-22836.10
0.9772,0.0228	-22862.71
0.9799,0.0201	-22847.42
0.9943,0.0057	-22836.94
0.9262,0.0738	-22883.34
0.9866,0.0134	-22846.97
0.9989,0.0011	-22836.09
0.9750,0.0250	-22844.24
0.9797,0.0203	-22851.32
0.9937,0.0063	-22837.05
0.9311,0.0689	-22880.67
0.9828,0.0172	-22859.32
0.9989,0.0011	-22836.08
0.9744,0.0256	-22855.26
0.9743,0.0257	-22851.63
0.9936,0.0064	-22842.12
0.9245,0.0755	-22868.36
0.9843,0.0157	-22859.51
0.9987,0.0013	-22836.12
0.9763,0.0237	-22862.64
0.9762,0.0238	-22847.78
0.9954,0.0046	-22836.74
0.9316,0.0684	-22872.82
0.9857,0.0143	-22859.71
0.9988,0.0012	-22836.12
0.9784,0.0216	-22851.37
0.9733,0.0267	-22855.30
0.9940,0.0060	-22837.00
0.9411,0.0589	-22875.05
0.9844,0.0156	-22842.93
0.9985,0.0015	-22836.17
0.9815,0.0185	-22847.28
0.9706,0.0294	-22855.42
0.9938,0.0062	-22837.03
0.9353,0.0647	-22883.27
0.9796,0.0204	-22843.58
0.9982,0.0018	-22836.23
0.9799,0.0201	-22839.65
0.9759,0.0241	-22851.52
0.9924,0.0076	-22837.30
0.9378,0.0622	-22858.87
0.9822,0.0178	-22843.21
0.9977,0.0023	-22836.32
0.9829,0.0171	-22847.18
0.9787,0.0213	-22847.53
0.9937,0.0063	-22842.11
0.9415,0.0585	-22858.37
0.9859,0.0141	-22842.76
0.9978,0.0022	-22842.40
0.9857,0.0143	-22851.25
0.9782,0.0218	-22855.19
0.9949,0.0051	-22836.82
0.9455,0.0545	-22872.12
0.9861,0.0139	-22842.74
0.9977,0.0023	-22842.38
0.9888,0.0112	-22837.97
0.9765,0.0235	-22844.02
0.9954,0.0046	-22847.50
0.9526,0.0474	-22869.00
0.9900,0.0100	-22842.33
0.9976,0.0024	-22836.33
0.9895,0.0105	-22842.38
0.9741,0.0259	-22848.01
0.9935,0.0065	-22842.12
0.9487,0.0513	-22860.37
0.9893,0.0107	-22851.45
0.9975,0.0025	-22836.35
0.9889,0.0111	-22851.42
0.9691,0.0309	-22848.63
0.9949,0.0051	-22842.10
0.9511,0.0489	-22848.27
0.9883,0.0117	-22846.93
0.9981,0.0019	-22836.24
0.9878,0.0122	-22842.55
0.9717,0.0283	-22858.90
0.9939,0.0061	-22837.02
0.9544,0.0456	-22868.96
0.9880,0.0120	-22842.52
0.9977,0.0023	-22836.31
0.9837,0.0163	-22847.12
0.9629,0.0371	-22859.23
0.9936,0.0064	-22847.16
0.9648,0.0352	-22859.12
0.9884,0.0116	-22838.04
0.9974,0.0026	-22842.33
0.9803,0.0197	-22851.29
0.9648,0.0352	-22849.19
0.9934,0.0066	-22837.11
0.9560,0.0440	-22868.94
0.9857,0.0143	-22851.25
0.9976,0.0024	-22842.35
0.9852,0.0148	-22838.64
0.9607,0.0393	-22862.56
0.9927,0.0073	-22847.06
0.9530,0.0470	-22862.97
0.9831,0.0169	-22839.04
0.9976,0.0024	-22836.33
0.9860,0.0140	-22838.50
0.9684,0.0316	-22855.56
0.9935,0.0065	-22842.12
0.9505,0.0495	-22857.24
0.9853,0.0147	-22842.83
0.9983,0.0017	-22836.20
0.9846,0.0154	-22851.23
0.9712,0.0288	-22858.91
0.9927,0.0073	-22837.24
0.9392,0.0608	-22883.32
0.9868,0.0132	-22842.65
0.9981,0.0019	-22836.23
0.9845,0.0155	-22847.08
0.9684,0.0316	-22848.71
0.9940,0.0060	-22837.00
0.9378,0.0622	-22867.01
0.9867,0.0133	-22842.67
0.9984,0.0016	-22836.17
0.9828,0.0172	-22839.10
0.9672,0.0328	-22852.26
0.9939,0.0061	-22842.11
0.9303,0.0697	-22883.28
0.9837,0.0163	-22843.02
0.9985,0.0015	-22836.17
0.9784,0.0216	-22847.56
0.9627,0.0373	-22855.99
0.9944,0.0056	-22836.92
0.9274,0.0726	-22868.03
0.9784,0.0216	-22855.19
0.9978,0.0022	-22836.29
0.9775,0.0225	-22855.19
0.9682,0.0318	-22855.57
0.9948,0.0052	-22836.84
0.9390,0.0610	-22872.38
0.9751,0.0249	-22851.57
0.9976,0.0024	-22836.34
0.9729,0.0271	-22855.32
0.9679,0.0321	-22845.37
0.9935,0.0065	-22847.15
0.9403,0.0597	-22864.04
0.9728,0.0272	-22862.47
0.9978,0.0022	-22836.29
0.9650,0.0350	-22855.80
0.9729,0.0271	-22851.73
0.9940,0.0060	-22836.99
0.9389,0.0611	-22872.38
0.9754,0.0246	-22847.87
0.9974,0.0026	-22836.37
0.9650,0.0350	-22845.85
0.9645,0.0355	-22869.05
0.9923,0.0077	-22842.17
0.9427,0.0573	-22863.81
0.9734,0.0266	-22855.29
0.9974,0.0026	-22842.32
0.9691,0.0309	-22855.51
0.9541,0.0459	-22878.07
0.9911,0.0089	-22851.67
0.9423,0.0577	-22866.64
0.9698,0.0302	-22855.47
0.9978,0.0022	-22836.30
0.9658,0.0342	-22855.74
0.9502,0.0498	-22863.17
0.9917,0.0083	-22846.99
0.9409,0.0591	-22880.59
0.9727,0.0273	-22844.60
0.9980,0.0020	-22836.25
0.9644,0.0356	-22855.84
0.9522,0.0478	-22857.05
0.9917,0.0083	-22837.43
0.9507,0.0493	-22848.34
0.9740,0.0260	-22848.02
0.9983,0.0017	-22836.19
0.9644,0.0356	-22849.25
0.9456,0.0544	-22874.97
0.9930,0.0070	-22837.18
0.9570,0.0430	-22862.73
0.9684,0.0316	-22858.98
0.9985,0.0015	-22836.17
0.9710,0.0290	-22844.87
0.9533,0.0467	-22862.95
0.9927,0.0073	-22837.24
0.9612,0.0388	-22856.12
0.9734,0.0266	-22848.09
0.9986,0.0014	-22836.14
0.9776,0.0224	-22847.64
0.9424,0.0576	-22852.67
0.9911,0.0089	-22842.25
0.9610,0.0390	-22865.75
0.9775,0.0225	-22855.19
0.9983,0.0017	-22836.19
0.9794,0.0206	-22843.60
0.9475,0.0525	-22860.50
0.9906,0.0094	-22842.29
0.9593,0.0407	-22859.46
0.9758,0.0242	-22847.82
0.9985,0.0015	-22836.16
0.9834,0.0166	-22847.15
0.9578,0.0422	-22850.20
0.9894,0.0106	-22851.46
0.9586,0.0414	-22853.22
0.9762,0.0238	-22855.21
0.9985,0.0015	-22836.16
0.9805,0.0195	-22843.45
0.9655,0.0345	-22845.77
0.9881,0.0119	-22838.10
0.9659,0.0341	-22852.38
0.9760,0.0240	-22851.51
0.9980,0.0020	-22836.26
0.9812,0.0188	-22847.31
0.9705,0.0295	-22848.44
0.9877,0.0123	-22838.16
0.9686,0.0314	-22845.26
0.9761,0.0239	-22840.38
0.9972,0.0028	-22842.28
0.9777,0.0223	-22847.63
0.9687,0.0313	-22858.97
0.9892,0.0108	-22837.89
0.9720,0.0280	-22862.45
0.9802,0.0198	-22847.39
0.9963,0.0037	-22836.57
0.9772,0.0228	-22847.68
0.9701,0.0299	-22848.49
0.9873,0.0127	-22846.95
0.9715,0.0285	-22851.85
0.9798,0.0202	-22839.66
0.9968,0.0032	-22842.22
0.9736,0.0264	-22858.89
0.9645,0.0355	-22859.14
0.9903,0.0097	-22846.94
0.9732,0.0268	-22848.11
0.9815,0.0185	-22847.29
0.9967,0.0033	-22836.49
0.9720,0.0280	-22858.90
0.9642,0.0358	-22865.74
0.9900,0.0100	-22851.53
0.9781,0.0219	-22847.59
0.9807,0.0193	-22866.98
0.9968,0.0032	-22836.47
0.9725,0.0275	-22848.20
0.9645,0.0355	-22865.74
0.9885,0.0115	-22842.48
0.9826,0.0174	-22839.14
0.9778,0.0222	-22847.61
0.9969,0.0031	-22836.46
0.9718,0.0282	-22851.82
0.9667,0.0333	-22859.04
0.9874,0.0126	-22838.22
0.9861,0.0139	-22855.52
0.9784,0.0216	-22843.75
0.9964,0.0036	-22842.17
0.9705,0.0295	-22851.93
0.9678,0.0322	-22848.79
0.9886,0.0114	-22838.01
0.9830,0.0170	-22843.11
0.9802,0.0198	-22843.49
0.9958,0.0042	-22842.13
0.9676,0.0324	-22855.61
0.9577,0.0423	-22862.69
0.9901,0.0099	-22842.33
0.9844,0.0156	-22855.37
0.9795,0.0205	-22847.46
0.9950,0.0050	-22836.80
0.9675,0.0325	-22852.22
0.9563,0.0437	-22859.68
0.9904,0.0096	-22837.66
0.9830,0.0170	-22859.34
0.9787,0.0213	-22862.85
0.9950,0.0050	-22836.81
0.9651,0.0349	-22859.11
0.9523,0.0477	-22860.02
0.9909,0.0091	-22846.95
0.9816,0.0184	-22847.28
0.9826,0.0174	-22859.30
0.9958,0.0042	-22842.13
0.9662,0.0338	-22859.06
0.9481,0.0519	-22848.81
0.9900,0.0100	-22846.93
0.9795,0.0205	-22855.19
0.9844,0.0156	-22842.94
0.9958,0.0042	-22836.65
0.9699,0.0301	-22848.51
0.9516,0.0484	-22857.11
0.9902,0.0098	-22837.69
0.9760,0.0240	-22855.22
0.9828,0.0172	-22847.18
0.9965,0.0035	-22836.53
0.9769,0.0231	-22855.20
0.9492,0.0508	-22866.18
0.9893,0.0107	-22837.87
0.9705,0.0295	-22858.92
0.9838,0.0162	-22847.12
0.9964,0.0036	-22836.55
0.9742,0.0258	-22851.63
0.9508,0.0492	-22854.24
0.9916,0.0084	-22837.44
0.9695,0.0305	-22865.86
0.9822,0.0178	-22847.23
0.9969,0.0031	-22836.47
0.9700,0.0300	-22848.51
0.9437,0.0563	-22849.63
0.9933,0.0067	-22847.12
0.9702,0.0298	-22851.96
0.9826,0.0174	-22843.17
0.9966,0.0034	-22836.52
0.9572,0.0428	-22859.61
0.9468,0.0532	-22860.56
0.9918,0.0082	-22837.41
0.9726,0.0274	-22862.47
0.9859,0.0141	-22847.00
0.9964,0.0036	-22842.17
0.9555,0.0445	-22862.81
0.9550,0.0450	-22853.68
0.9911,0.0089	-22842.25
0.9739,0.0261	-22848.03
0.9874,0.0126	-22842.59
0.9959,0.0041	-22842.14
0.9579,0.0421	-22847.06
0.9575,0.0425	-22853.36
0.9898,0.0102	-22842.36
0.9762,0.0238	-22847.78
0.9878,0.0122	-22846.94
0.9946,0.0054	-22842.10
0.9553,0.0447	-22856.70
0.9644,0.0356	-22855.84
0.9911,0.0089	-22846.96
0.9790,0.0210	-22847.51
0.9902,0.0098	-22842.32
0.9917,0.0083	-22837.43
0.9564,0.0436	-22865.85
0.9697,0.0303	-22848.54
0.9905,0.0095	-22846.94
0.9767,0.0233	-22847.73
0.9929,0.0071	-22837.21
0.9919,0.0081	-22842.19
0.9548,0.0452	-22859.81
0.9692,0.0308	-22852.06
0.9920,0.0080	-22837.36
0.9809,0.0191	-22851.27
0.9926,0.0074	-22837.25
0.9911,0.0089	-22842.25
0.9492,0.0508	-22869.10
0.9678,0.0322	-22855.60
0.9923,0.0077	-22847.03
0.9819,0.0181	-22855.24
0.9930,0.0070	-22842.14
0.9924,0.0076	-22847.04
0.9520,0.0480	-22854.08
0.9642,0.0358	-22855.86
0.9924,0.0076	-22842.16
0.9835,0.0165	-22838.97
0.9927,0.0073	-22847.06
0.9910,0.0090	-22837.55
0.9472,0.0528	-22851.86
0.9708,0.0292	-22862.42
0.9925,0.0075	-22842.16
0.9854,0.0146	-22847.03
0.9913,0.0087	-22842.24
0.9919,0.0081	-22842.19
0.9615,0.0385	-22856.09
0.9656,0.0344	-22852.42
0.9908,0.0092	-22837.58
0.9830,0.0170	-22839.07
0.9889,0.0111	-22846.93
0.9931,0.0069	-22837.16
0.9700,0.0300	-22858.93
0.9633,0.0367	-22846.13
0.9918,0.0082	-22846.99
0.9870,0.0130	-22851.29
0.9877,0.0123	-22842.56
0.9949,0.0051	-22842.10
0.9613,0.0387	-22868.96
0.9635,0.0365	-22869.01
0.9885,0.0115	-22838.02
0.9881,0.0119	-22846.93
0.9871,0.0129	-22842.62
0.9941,0.0059	-22836.97
0.9670,0.0330	-22865.78
0.9493,0.0507	-22857.38
0.9892,0.0108	-22846.92
0.9895,0.0105	-22846.93
0.9876,0.0124	-22860.07
0.9941,0.0059	-22836.98
0.9632,0.0368	-22855.94
0.9462,0.0538	-22854.89
0.9884,0.0116	-22846.93
0.9883,0.0117	-22842.49
0.9834,0.0166	-22843.06
0.9941,0.0059	-22836.99
0.9712,0.0288	-22848.35
0.9492,0.0508	-22857.40
0.9881,0.0119	-22851.35
0.9854,0.0146	-22847.03
0.9845,0.0155	-22847.07
0.9934,0.0066	-22842.12
0.9744,0.0256	-22847.98
0.9500,0.0500	-22866.13
0.9892,0.0108	-22842.40
0.9855,0.0145	-22838.58
0.9872,0.0128	-22846.96
0.9941,0.0059	-22842.10
0.9753,0.0247	-22844.21
0.9496,0.0504	-22857.34
0.9909,0.0091	-22842.26
0.9877,0.0123	-22838.16
0.9852,0.0148	-22838.64
0.9937,0.0063	-22842.11
0.9718,0.0282	-22848.29
0.9389,0.0611	-22861.46
0.9903,0.0097	-22837.69
0.9891,0.0109	-22837.91
0.9854,0.0146	-22842.82
0.9919,0.0081	-22842.19
0.9731,0.0269	-22851.72
0.9310,0.0690	-22859.85
0.9900,0.0100	-22837.74
0.9896,0.0104	-22837.82
0.9824,0.0176	-22855.26
0.9922,0.0078	-22837.33
0.9777,0.0223	-22840.07
0.9378,0.0622	-22867.02
0.9887,0.0113	-22846.93
0.9876,0.0124	-22838.19
0.9832,0.0168	-22847.16
0.9906,0.0094	-22842.29
0.9776,0.0224	-22847.64
0.9391,0.0609	-22872.37
0.9916,0.0084	-22846.98
0.9906,0.0094	-22842.29
0.9798,0.0202	-22855.19
0.9913,0.0087	-22837.50
0.9761,0.0239	-22855.21
0.9452,0.0548	-22857.89
0.9917,0.0083	-22842.21
0.9924,0.0076	-22837.29
0.9851,0.0149	-22842.86
0.9930,0.0070	-22842.13
0.9834,0.0166	-22855.31
0.9422,0.0578	-22861.07
0.9899,0.0101	-22846.93
0.9913,0.0087	-22842.23
0.9873,0.0127	-22846.95
0.9920,0.0080	-22842.19
0.9849,0.0151	-22859.59
0.9489,0.0511	-22857.43
0.9918,0.0082	-22837.40
0.9920,0.0080	-22837.37
0.9849,0.0151	-22847.06
0.9907,0.0093	-22842.28
0.9870,0.0130	-22846.96
0.9570,0.0430	-22865.83
0.9933,0.0067	-22847.12
0.9920,0.0080	-22842.19
0.9861,0.0139	-22846.99
0.9893,0.0107	-22846.92
0.9875,0.0125	-22842.58
0.9584,0.0416	-22878.34
0.9952,0.0048	-22836.77
0.9915,0.0085	-22846.98
0.9863,0.0137	-22846.99
0.9869,0.0131	-22842.64
0.9882,0.0118	-22846.93
0.9536,0.0464	-22859.91
0.9946,0.0054	-22836.88
0.9921,0.0079	-22837.36
0.9880,0.0120	-22855.76
0.9885,0.0115	-22842.47
0.9880,0.0120	-22838.12
0.9537,0.0463	-22862.92
0.9935,0.0065	-22847.15
0.9904,0.0096	-22837.67
0.9896,0.0104	-22842.37
0.9895,0.0105	-22842.38
0.9874,0.0126	-22846.95
0.9552,0.0448	-22875.07
0.9921,0.0079	-22837.35
0.9911,0.0089	-22846.96
0.9890,0.0110	-22846.92
0.9906,0.0094	-22837.63
0.9890,0.0110	-22851.42
0.9591,0.0409	-22853.16
0.9922,0.0078	-22847.02
0.9886,0.0114	-22842.46
0.9886,0.0114	-22846.93
0.9892,0.0108	-22846.92
0.9889,0.0111	-22846.93
0.9527,0.0473	-22859.99
0.9923,0.0077	-22842.17
0.9910,0.0090	-22842.26
0.9903,0.0097	-22846.94
0.9911,0.0089	-22856.40
0.9901,0.0099	-22842.32
0.9521,0.0479	-22854.06
0.9920,0.0080	-22842.19
0.9914,0.0086	-22846.97
0.9915,0.0085	-22846.98
0.9928,0.0072	-22842.15
0.9893,0.0107	-22842.40
0.9592,0.0408	-22853.15
0.9888,0.0112	-22842.44
0.9893,0.0107	-22851.45
0.9916,0.0084	-22837.43
0.9902,0.0098	-22842.32
0.9903,0.0097	-22846.94
0.9403,0.0597	-22861.29
0.9893,0.0107	-22837.87
0.9886,0.0114	-22838.00
0.9902,0.0098	-22842.32
0.9926,0.0074	-22842.16
0.9929,0.0071	-22842.14
0.9304,0.0696	-22867.72
0.9884,0.0116	-22842.49
0.9862,0.0138	-22842.72
0.9905,0.0095	-22846.94
0.9929,0.0071	-22842.14
0.9922,0.0078	-22847.02
0.9352,0.0648	-22869.92
0.9838,0.0162	-22843.01
0.9883,0.0117	-22851.37
0.9913,0.0087	-22837.49
0.9939,0.0061	-22837.01
0.9914,0.0086	-22837.48
0.9331,0.0669	-22867.45
0.9869,0.0131	-22838.32
0.9878,0.0122	-22842.54
0.9923,0.0077	-22837.32
0.9952,0.0048	-22836.77
0.9921,0.0079	-22837.34
0.9410,0.0590	-22863.98
0.9890,0.0110	-22837.92
0.9897,0.0103	-22837.81
0.9939,0.0061	-22847.21
0.9949,0.0051	-22842.10
0.9932,0.0068	-22837.15
0.9539,0.0461	-22856.86
0.9903,0.0097	-22846.94
0.9880,0.0120	-22855.76
0.9953,0.0047	-22847.46
0.9936,0.0064	-22842.11
0.9951,0.0049	-22836.80
0.9536,0.0464	-22875.02
0.9887,0.0113	-22842.46
0.9884,0.0116	-22846.93
0.9948,0.0052	-22836.85
0.9930,0.0070	-22847.09
0.9954,0.0046	-22842.11
0.9447,0.0553	-22869.31
0.9905,0.0095	-22846.94
0.9888,0.0112	-22851.41
0.9951,0.0049	-22836.79
0.9941,0.0059	-22836.98
0.9957,0.0043	-22836.69
0.9488,0.0512	-22869.12
0.9903,0.0097	-22842.31
0.9893,0.0107	-22842.40
0.9950,0.0050	-22842.10
0.9948,0.0052	-22842.10
0.9954,0.0046	-22836.73
0.9518,0.0482	-22851.12
0.9919,0.0081	-22842.19
0.9899,0.0101	-22842.34
0.9952,0.0048	-22836.77
0.9941,0.0059	-22836.98
0.9959,0.0041	-22842.13
0.9547,0.0453	-22859.81
0.9917,0.0083	-22842.21
0.9898,0.0102	-22837.78
0.9948,0.0052	-22842.10
0.9949,0.0051	-22836.83
0.9954,0.0046	-22842.11
0.9554,0.0446	-22850.56
0.9906,0.0094	-22846.94
0.9899,0.0101	-22860.68
0.9928,0.0072	-22837.22
0.9940,0.0060	-22847.21
0.9942,0.0058	-22852.41
0.9564,0.0436	-22859.67
0.9898,0.0102	-22842.35
0.9891,0.0109	-22837.91
0.9921,0.0079	-22847.02
0.9943,0.0057	-22847.26
0.9949,0.0051	-22842.10
0.9555,0.0445	-22875.08
0.9907,0.0093	-22842.28
0.9884,0.0116	-22855.83
0.9907,0.0093	-22846.95
0.9947,0.0053	-22842.10
0.9952,0.0048	-22836.77
0.9595,0.0405	-22856.28
0.9916,0.0084	-22842.21
0.9895,0.0105	-22856.01
0.9886,0.0114	-22851.39
0.9927,0.0073	-22837.24
0.9948,0.0052	-22842.10
0.9583,0.0417	-22853.26
0.9916,0.0084	-22846.98
0.9890,0.0110	-22837.92
0.9889,0.0111	-22842.43
0.9934,0.0066	-22842.12
0.9942,0.0058	-22842.10
0.9708,0.0292	-22862.42
0.9922,0.0078	-22851.88
0.9837,0.0163	-22851.23
0.9911,0.0089	-22846.96
0.9931,0.0069	-22837.16
0.9941,0.0059	-22847.23
0.9746,0.0254	-22847.96
0.9915,0.0085	-22842.22
0.9843,0.0157	-22842.95
0.9911,0.0089	-22842.25
0.9936,0.0064	-22837.07
0.9946,0.0054	-22836.89
0.9721,0.0279	-22851.80
0.9892,0.0108	-22837.89
0.9822,0.0178	-22843.22
0.9898,0.0102	-22837.77
0.9939,0.0061	-22842.11
0.9957,0.0043	-22836.68
0.9716,0.0284	-22844.78
0.9866,0.0134	-22855.57
0.9839,0.0161	-22838.88
0.9876,0.0124	-22838.20
0.9943,0.0057	-22836.94
0.9959,0.0041	-22836.65
0.9710,0.0290	-22865.94
0.9879,0.0121	-22846.94
0.9819,0.0181	-22851.25
0.9886,0.0114	-22842.46
0.9936,0.0064	-22837.07
0.9957,0.0043	-22842.13
0.9747,0.0253	-22851.59
0.9908,0.0092	-22846.95
0.9875,0.0125	-22851.31
0.9895,0.0105	-22846.93
0.9944,0.0056	-22842.10
0.9953,0.0047	-22836.76
0.9781,0.0219	-22855.19
0.9896,0.0104	-22846.93
0.9881,0.0119	-22842.52
0.9875,0.0125	-22842.58
0.9948,0.0052	-22842.10
0.9965,0.0035	-22842.18
0.9793,0.0207	-22855.19
0.9891,0.0109	-22837.92
0.9878,0.0122	-22842.55
0.9853,0.0147	-22851.24
0.9948,0.0052	-22842.10
0.9957,0.0043	-22842.13
0.9807,0.0193	-22839.49
0.9893,0.0107	-22837.87
0.9901,0.0099	-22842.33
0.9870,0.0130	-22855.62
0.9951,0.0049	-22836.79
0.9949,0.0051	-22847.38
0.9842,0.0158	-22859.49
0.9901,0.0099	-22842.32
0.9879,0.0121	-22851.34
0.9840,0.0160	-22838.87
0.9947,0.0053	-22836.86
0.9945,0.0055	-22836.90
0.9836,0.0164	-22843.04
0.9909,0.0091	-22846.95
0.9856,0.0144	-22842.79
0.9859,0.0141	-22838.52
0.9944,0.0056	-22842.10
0.9937,0.0063	-22837.05
0.9848,0.0152	-22842.88
0.9893,0.0107	-22837.88
0.9849,0.0151	-22847.05
0.9889,0.0111	-22837.94
0.9938,0.0062	-22837.02
0.9921,0.0079	-22851.84
0.9824,0.0176	-22847.21
0.9908,0.0092	-22842.27
0.9832,0.0168	-22851.23
0.9900,0.0100	-22837.75
0.9931,0.0069	-22842.13
0.9915,0.0085	-22837.46
0.9809,0.0191	-22851.27
0.9910,0.0090	-22842.25
0.9819,0.0181	-22847.25
0.9848,0.0152	-22851.23
0.9936,0.0064	-22842.12
0.9931,0.0069	-22837.16
0.9831,0.0169	-22839.03
0.9885,0.0115	-22842.47
0.9762,0.0238	-22855.21
0.9866,0.0134	-22838.37
0.9945,0.0055	-22842.10
0.9933,0.0067	-22837.13
0.9834,0.0166	-22847.15
0.9894,0.0106	-22837.86
0.9802,0.0198	-22847.39
0.9838,0.0162	-22847.12
0.9946,0.0054	-22842.10
0.9936,0.0064	-22842.12
0.9818,0.0182	-22839.28
0.9892,0.0108	-22842.41
0.9774,0.0226	-22843.89
0.9844,0.0156	-22838.79
0.9939,0.0061	-22837.01
0.9932,0.0068	-22842.13
0.9860,0.0140	-22851.25
0.9884,0.0116	-22842.49
0.9770,0.0230	-22858.95
0.9794,0.0206	-22847.47
0.9943,0.0057	-22842.10
0.9929,0.0071	-22837.21
0.9855,0.0145	-22842.80
0.9859,0.0141	-22847.01
0.9743,0.0257	-22844.36
0.9754,0.0246	-22851.55
0.9933,0.0067	-22837.12
0.9932,0.0068	-22837.15
0.9843,0.0157	-22847.09
0.9888,0.0112	-22842.44
0.9744,0.0256	-22862.54
0.9750,0.0250	-22851.57
0.9930,0.0070	-22847.09
0.9927,0.0073	-22837.23
0.9841,0.0159	-22838.86
0.9879,0.0121	-22838.14
0.9781,0.0219	-22855.19
0.9757,0.0243	-22847.84
0.9924,0.0076	-22842.17
0.9930,0.0070	-22837.17
0.9828,0.0172	-22851.23
0.9891,0.0109	-22842.41
0.9828,0.0172	-22847.19
0.9783,0.0217	-22855.19
0.9914,0.0086	-22846.97
0.9950,0.0050	-22842.10
0.9879,0.0121	-22846.94
0.9882,0.0118	-22851.36
0.9822,0.0178	-22847.23
0.9773,0.0227	-22847.67
0.9913,0.0087	-22837.50
0.9928,0.0072	-22847.07
0.9894,0.0106	-22842.39
0.9871,0.0129	-22838.28
0.9835,0.0165	-22859.40
0.9742,0.0258	-22851.63
0.9906,0.0094	-22842.28
0.9918,0.0082	-22842.20
0.9896,0.0104	-22846.93
0.9882,0.0118	-22846.93
0.9820,0.0180	-22855.24
0.9743,0.0257	-22848.00
0.9923,0.0077	-22842.17
0.9941,0.0059	-22836.98
0.9883,0.0117	-22838.07
0.9895,0.0105	-22842.38
0.9799,0.0201	-22851.31
0.9760,0.0240	-22847.81
0.9924,0.0076	-22837.28
0.9942,0.0058	-22836.96
0.9890,0.0110	-22855.92
0.9878,0.0122	-22846.94
0.9780,0.0220	-22840.01
0.9777,0.0223	-22851.41
0.9892,0.0108	-22842.40
0.9941,0.0059	-22842.10
0.9890,0.0110	-22842.43
0.9881,0.0119	-22842.51
0.9793,0.0207	-22851.33
0.9773,0.0227	-22847.66
0.9840,0.0160	-22847.11
0.9931,0.0069	-22842.13
0.9859,0.0141	-22851.25
0.9880,0.0120	-22846.94
0.9812,0.0188	-22855.22
0.9797,0.0203	-22847.44
0.9805,0.0195	-22855.20
0.9919,0.0081	-22842.19
0.9884,0.0116	-22838.03
0.9870,0.0130	-22846.96
0.9856,0.0144	-22838.56
0.9784,0.0216	-22851.38
0.9810,0.0190	-22855.22
0.9904,0.0096	-22842.30
0.9907,0.0093	-22842.28
0.9875,0.0125	-22838.20
0.9828,0.0172	-22839.09
0.9800,0.0200	-22851.30
0.9848,0.0152	-22838.72
0.9921,0.0079	-22842.18
0.9894,0.0106	-22837.85
0.9889,0.0111	-22837.95
0.9814,0.0186	-22851.26
0.9830,0.0170	-22847.17
0.9810,0.0190	-22839.43
0.9914,0.0086	-22842.23
0.9889,0.0111	-22842.43
0.9870,0.0130	-22851.29
0.9841,0.0159	-22842.97
0.9844,0.0156	-22847.08
0.9831,0.0169	-22843.10
0.9929,0.0071	-22847.08
0.9898,0.0102	-22846.93
0.9894,0.0106	-22851.46
0.9831,0.0169	-22843.10
0.9857,0.0143	-22847.02
0.9819,0.0181	-22851.25
0.9941,0.0059	-22842.10
0.9871,0.0129	-22842.62
0.9898,0.0102	-22851.51
0.9834,0.0166	-22838.99
0.9854,0.0146	-22847.03
0.9844,0.0156	-22855.38
0.9940,0.0060	-22847.21
0.9863,0.0137	-22855.54
0.9886,0.0114	-22842.46
0.9772,0.0228	-22847.68
0.9820,0.0180	-22843.25
0.9855,0.0145	-22847.03
0.9949,0.0051	-22847.38
0.9807,0.0193	-22843.42
0.9901,0.0099	-22851.54
0.9749,0.0251	-22873.55
0.9827,0.0173	-22847.19
0.9827,0.0173	-22851.23
0.9957,0.0043	-22842.12
0.9830,0.0170	-22847.17
0.9915,0.0085	-22842.22
0.9820,0.0180	-22851.24
0.9832,0.0168	-22847.16
0.9852,0.0148	-22847.04
0.9956,0.0044	-22836.69
0.9812,0.0188	-22847.31
0.9921,0.0079	-22837.35
0.9818,0.0182	-22843.28
0.9879,0.0121	-22846.94
0.9865,0.0135	-22855.56
0.9948,0.0052	-22842.10
0.9798,0.0202	-22851.31
0.9920,0.0080	-22842.19
0.9831,0.0169	-22847.17
0.9860,0.0140	-22855.51
0.9865,0.0135	-22846.98
0.9950,0.0050	-22836.80
