#isoforms=['ENSG00000101294.SE.1.A.up_ENSG00000101294.SE.1.A.SE1_ENSG00000101294.SE.1.A.dn','ENSG00000101294.SE.1.B.up_ENSG00000101294.SE.1.B.dn']	exon_lens=('ENSG00000101294.SE.1.A.up',99),('ENSG00000101294.SE.1.A.SE1',376),('ENSG00000101294.SE.1.A.dn',89),('ENSG00000101294.SE.1.B.up',99),('ENSG00000101294.SE.1.B.dn',89)	iters=5000	burn_in=500	lag=10	percent_accept=87.07	proposal_type=drift	counts=(0,0):270,(1,0):120,(1,1):162	assigned_counts=0:165,1:117	chrom=chr20	strand=+	mRNA_starts=31527484,31527484	mRNA_ends=31545035,31545035
sampled_psi	log_score
0.3679,0.6321	-1825.35
0.3494,0.6506	-1827.75
0.2828,0.7172	-1812.81
0.3332,0.6668	-1824.35
0.2977,0.7023	-1824.99
0.3284,0.6716	-1823.62
0.3537,0.6463	-1825.37
0.3713,0.6287	-1822.89
0.2879,0.7121	-1806.49
0.2924,0.7076	-1813.76
0.3204,0.6796	-1818.36
0.3022,0.6978	-1807.23
0.3430,0.6570	-1823.84
0.3376,0.6624	-1821.70
0.2767,0.7233	-1818.62
0.2994,0.7006	-1813.01
0.3448,0.6552	-1826.45
0.2981,0.7019	-1818.12
0.3204,0.6796	-1820.61
0.3145,0.6855	-1815.89
0.2786,0.7214	-1811.88
0.3234,0.6766	-1822.13
0.2843,0.7157	-1810.97
0.2651,0.7349	-1813.12
0.2898,0.7102	-1811.05
0.3151,0.6849	-1812.02
0.2740,0.7260	-1805.10
0.3355,0.6645	-1823.69
0.2700,0.7300	-1811.98
0.2601,0.7399	-1813.31
0.2869,0.7131	-1818.29
0.2886,0.7114	-1822.76
0.3017,0.6983	-1818.11
0.3265,0.6735	-1816.37
0.2624,0.7376	-1815.28
0.2875,0.7125	-1821.90
0.2799,0.7201	-1820.38
0.2584,0.7416	-1811.28
0.3057,0.6943	-1821.40
0.3695,0.6305	-1824.36
0.2672,0.7328	-1812.04
0.2953,0.7047	-1823.36
0.3163,0.6837	-1818.26
0.2677,0.7323	-1814.04
0.3445,0.6555	-1820.02
0.3415,0.6585	-1821.18
0.2475,0.7525	-1799.56
0.3280,0.6720	-1816.45
0.3101,0.6899	-1826.15
0.3286,0.6714	-1820.76
0.3040,0.6960	-1822.25
0.3378,0.6622	-1824.40
0.2450,0.7550	-1815.32
0.3601,0.6399	-1831.33
0.3365,0.6635	-1821.67
0.2668,0.7332	-1819.13
0.2951,0.7049	-1812.05
0.3327,0.6673	-1824.35
0.2672,0.7328	-1814.06
0.3226,0.6774	-1821.38
0.3384,0.6616	-1817.03
0.3128,0.6872	-1824.49
0.2923,0.7077	-1818.18
0.3400,0.6600	-1825.10
0.2682,0.7318	-1815.03
0.2764,0.7236	-1811.90
0.3152,0.6848	-1822.12
0.3218,0.6782	-1819.89
0.2984,0.7016	-1818.97
0.3527,0.6473	-1822.31
0.2778,0.7222	-1808.07
0.3181,0.6819	-1821.35
0.3115,0.6885	-1817.38
0.3170,0.6830	-1822.11
0.3111,0.6889	-1822.14
0.3202,0.6798	-1815.34
0.2969,0.7031	-1825.88
0.3166,0.6834	-1825.19
0.3408,0.6592	-1817.85
0.3022,0.6978	-1819.78
0.3556,0.6444	-1836.13
0.3457,0.6543	-1823.27
0.3008,0.6992	-1822.32
0.3021,0.6979	-1818.11
0.3006,0.6994	-1814.73
0.3118,0.6882	-1820.55
0.3866,0.6134	-1831.07
0.3225,0.6775	-1826.58
0.3166,0.6834	-1825.19
0.2986,0.7014	-1817.26
0.2967,0.7033	-1813.81
0.2770,0.7230	-1814.77
0.3664,0.6336	-1829.11
0.3098,0.6902	-1816.55
0.3157,0.6843	-1820.57
0.2721,0.7279	-1813.91
0.2764,0.7236	-1813.82
0.2358,0.7642	-1802.05
0.2671,0.7329	-1815.07
0.2681,0.7319	-1812.02
0.3395,0.6605	-1823.76
0.3062,0.6938	-1820.57
0.3233,0.6767	-1823.61
0.2529,0.7471	-1807.17
0.3259,0.6741	-1819.25
0.2498,0.7502	-1816.06
0.3246,0.6754	-1820.68
0.2649,0.7351	-1817.21
0.3214,0.6786	-1825.11
0.2996,0.7004	-1818.11
0.3649,0.6351	-1824.10
0.2756,0.7244	-1809.00
0.2920,0.7080	-1806.67
0.3178,0.6822	-1830.52
0.3072,0.6928	-1818.94
0.2764,0.7236	-1814.78
0.3668,0.6332	-1822.02
0.3133,0.6867	-1827.62
0.2681,0.7319	-1816.04
0.3474,0.6526	-1823.96
0.2846,0.7154	-1818.34
0.2628,0.7372	-1807.01
0.3398,0.6602	-1817.12
0.3156,0.6844	-1825.98
0.2605,0.7395	-1807.03
0.3743,0.6257	-1828.77
0.2931,0.7069	-1820.81
0.3018,0.6982	-1817.27
0.3096,0.6904	-1818.95
0.2951,0.7049	-1811.18
0.2863,0.7137	-1810.08
0.3592,0.6408	-1829.02
0.3048,0.6952	-1808.22
0.2833,0.7167	-1815.60
0.3110,0.6890	-1824.53
0.2886,0.7114	-1814.64
0.3033,0.6967	-1813.12
0.3432,0.6568	-1818.00
0.3003,0.6997	-1810.50
0.3245,0.6755	-1822.14
0.3159,0.6841	-1810.52
0.3155,0.6845	-1825.99
0.2808,0.7192	-1815.64
0.3736,0.6264	-1824.10
0.3186,0.6814	-1823.63
0.3450,0.6550	-1823.25
0.2984,0.7016	-1823.25
0.2953,0.7047	-1812.05
0.2460,0.7540	-1814.12
0.3549,0.6451	-1829.59
0.3281,0.6719	-1830.78
0.3044,0.6956	-1825.55
0.3527,0.6473	-1822.92
0.2809,0.7191	-1815.64
0.2104,0.7896	-1823.60
0.3185,0.6815	-1824.39
0.3642,0.6358	-1828.52
0.3223,0.6777	-1823.61
0.3131,0.6869	-1825.27
0.2842,0.7158	-1818.36
0.2298,0.7702	-1816.83
0.3397,0.6603	-1826.42
0.3087,0.6913	-1822.17
0.3393,0.6607	-1824.42
0.3406,0.6594	-1827.75
0.2884,0.7116	-1811.93
0.2937,0.7063	-1811.14
0.3371,0.6629	-1821.01
0.3236,0.6764	-1816.24
0.3559,0.6441	-1820.69
0.3343,0.6657	-1821.61
0.3273,0.6727	-1821.45
0.2773,0.7227	-1809.02
0.2947,0.7053	-1803.31
0.3153,0.6847	-1823.67
0.3782,0.6218	-1830.89
0.2582,0.7418	-1817.62
0.3687,0.6313	-1823.24
0.2771,0.7229	-1825.32
0.3078,0.6922	-1822.18
0.2721,0.7279	-1811.95
0.3580,0.6420	-1825.51
0.2605,0.7395	-1814.34
0.3082,0.6918	-1825.41
0.2943,0.7057	-1817.28
0.2823,0.7177	-1820.28
0.2589,0.7411	-1817.57
0.3632,0.6368	-1827.38
0.3186,0.6814	-1815.27
0.3440,0.6560	-1819.99
0.2904,0.7096	-1827.14
0.2642,0.7358	-1810.08
0.2560,0.7440	-1817.77
0.3147,0.6853	-1828.34
0.3045,0.6955	-1821.42
0.3909,0.6091	-1829.42
0.2852,0.7148	-1819.25
0.2431,0.7569	-1801.85
0.2868,0.7132	-1813.73
0.2855,0.7145	-1812.82
0.3011,0.6989	-1818.95
0.3810,0.6190	-1828.51
0.2768,0.7232	-1815.73
0.2495,0.7505	-1805.07
0.2875,0.7125	-1813.73
0.2436,0.7564	-1802.97
0.2881,0.7119	-1816.45
0.3440,0.6560	-1812.89
0.3352,0.6648	-1820.26
0.2290,0.7710	-1808.42
0.3055,0.6945	-1820.58
0.2257,0.7743	-1805.00
0.2795,0.7205	-1811.88
0.3677,0.6323	-1831.85
0.2973,0.7027	-1813.82
0.2871,0.7129	-1811.91
0.2800,0.7200	-1815.66
0.2375,0.7625	-1813.66
0.2786,0.7214	-1817.59
0.3649,0.6351	-1831.31
0.3146,0.6854	-1820.56
0.2768,0.7232	-1822.46
0.2576,0.7424	-1814.48
0.2299,0.7701	-1803.51
0.2507,0.7493	-1811.61
0.2971,0.7029	-1814.68
0.2784,0.7216	-1823.32
0.3301,0.6699	-1822.92
0.2605,0.7395	-1802.86
0.2680,0.7320	-1816.04
0.2852,0.7148	-1810.06
0.2815,0.7185	-1817.50
0.2974,0.7026	-1815.54
0.3645,0.6355	-1834.08
0.2945,0.7055	-1819.90
0.2643,0.7357	-1811.10
0.2726,0.7274	-1808.01
0.2919,0.7081	-1810.21
0.3543,0.6457	-1821.19
0.3718,0.6282	-1831.84
0.3123,0.6877	-1815.03
0.2979,0.7021	-1823.26
0.3373,0.6627	-1831.15
0.2896,0.7104	-1811.05
0.3218,0.6782	-1819.14
0.3455,0.6545	-1820.07
0.3031,0.6969	-1816.44
0.2860,0.7140	-1831.12
0.3464,0.6536	-1830.91
0.2618,0.7382	-1816.35
0.3117,0.6883	-1826.10
0.2971,0.7029	-1820.71
0.3015,0.6985	-1821.47
0.2868,0.7132	-1823.75
0.3534,0.6466	-1824.76
0.3088,0.6912	-1821.37
0.2941,0.7059	-1815.53
0.3061,0.6939	-1813.21
0.3295,0.6705	-1832.86
0.3189,0.6811	-1824.39
0.3460,0.6540	-1823.92
0.3063,0.6937	-1814.85
0.3162,0.6838	-1817.49
0.2941,0.7059	-1810.27
0.3413,0.6587	-1821.17
0.3074,0.6926	-1823.00
0.3468,0.6532	-1827.74
0.3047,0.6953	-1828.83
0.2889,0.7111	-1812.84
0.3299,0.6701	-1821.50
0.2856,0.7144	-1812.82
0.3295,0.6705	-1819.36
0.2922,0.7078	-1811.10
0.2944,0.7056	-1821.65
0.2831,0.7169	-1824.90
0.4000,0.6000	-1833.14
0.3060,0.6940	-1820.58
0.3205,0.6795	-1821.36
0.2776,0.7224	-1825.28
0.2510,0.7490	-1814.88
0.3113,0.6887	-1827.70
0.3639,0.6361	-1830.19
0.2940,0.7060	-1822.54
0.2841,0.7159	-1809.12
0.2675,0.7325	-1809.01
0.2681,0.7319	-1816.04
0.3373,0.6627	-1825.07
0.3067,0.6933	-1817.31
0.2814,0.7186	-1815.63
0.2461,0.7539	-1802.92
0.2783,0.7217	-1819.51
0.2769,0.7231	-1801.33
0.3344,0.6656	-1829.18
0.2473,0.7527	-1808.46
0.3005,0.6995	-1812.20
0.2431,0.7569	-1809.80
0.2822,0.7178	-1820.28
0.2965,0.7035	-1813.81
0.3191,0.6809	-1821.35
0.2387,0.7613	-1811.23
0.3170,0.6830	-1820.58
0.2359,0.7641	-1803.22
0.2863,0.7137	-1821.04
0.2703,0.7297	-1813.96
0.2816,0.7184	-1817.50
0.2697,0.7303	-1814.98
0.2942,0.7058	-1825.15
0.2381,0.7619	-1811.28
0.3002,0.6998	-1820.65
0.3339,0.6661	-1825.05
0.3030,0.6970	-1813.94
0.3294,0.6706	-1821.49
0.3749,0.6251	-1826.74
0.3050,0.6950	-1817.29
0.2568,0.7432	-1809.21
0.3098,0.6902	-1822.16
0.3113,0.6887	-1819.76
0.3053,0.6947	-1818.11
0.2875,0.7125	-1821.90
0.2823,0.7177	-1823.08
0.2526,0.7474	-1811.52
0.2808,0.7192	-1813.76
0.2803,0.7197	-1822.25
0.3396,0.6604	-1814.45
0.2999,0.7001	-1816.41
0.2798,0.7202	-1819.45
0.2682,0.7318	-1813.02
0.2892,0.7108	-1807.44
0.3143,0.6857	-1822.12
0.3200,0.6800	-1827.39
0.2647,0.7353	-1809.04
0.3010,0.6990	-1818.11
0.2893,0.7107	-1816.43
0.2876,0.7124	-1816.46
0.2965,0.7035	-1814.67
0.2382,0.7618	-1811.27
0.3032,0.6968	-1815.61
0.2929,0.7071	-1818.17
0.2868,0.7132	-1814.64
0.2669,0.7331	-1808.01
0.2918,0.7082	-1822.62
0.2915,0.7085	-1811.98
0.2842,0.7158	-1815.59
0.3192,0.6808	-1822.11
0.2658,0.7342	-1805.98
0.2347,0.7653	-1808.00
0.2701,0.7299	-1819.93
0.2688,0.7312	-1825.01
0.3388,0.6612	-1823.08
0.3325,0.6675	-1821.56
0.2804,0.7196	-1814.71
0.2843,0.7157	-1815.58
0.2999,0.7001	-1814.72
0.2557,0.7443	-1812.45
0.3779,0.6221	-1826.89
0.3228,0.6772	-1822.13
0.2688,0.7312	-1809.00
0.2826,0.7174	-1831.44
0.2980,0.7020	-1824.12
0.2853,0.7147	-1812.82
0.3494,0.6506	-1825.88
0.2682,0.7318	-1814.03
0.2526,0.7474	-1803.93
0.2672,0.7328	-1814.06
0.3393,0.6607	-1827.76
0.2819,0.7181	-1816.56
0.3449,0.6551	-1823.25
0.2692,0.7308	-1812.00
0.3026,0.6974	-1815.60
0.2854,0.7146	-1822.91
0.3126,0.6874	-1822.13
0.3040,0.6960	-1817.28
0.3159,0.6841	-1818.25
0.2967,0.7033	-1816.40
0.3382,0.6618	-1824.41
0.2674,0.7326	-1816.07
0.2947,0.7053	-1812.91
0.3576,0.6424	-1826.08
0.2748,0.7252	-1818.71
0.2900,0.7100	-1811.95
0.3287,0.6713	-1817.91
0.2557,0.7443	-1820.99
0.2989,0.7011	-1821.52
0.3279,0.6721	-1819.31
0.3071,0.6929	-1818.94
0.2964,0.7036	-1831.10
0.3473,0.6527	-1817.01
0.2982,0.7018	-1810.41
0.2976,0.7024	-1818.12
0.3117,0.6883	-1820.55
0.2751,0.7249	-1811.91
0.2468,0.7532	-1818.53
0.3663,0.6337	-1826.92
0.2946,0.7054	-1818.15
0.2989,0.7011	-1815.56
0.3720,0.6280	-1830.80
0.2700,0.7300	-1809.00
0.2925,0.7075	-1817.29
0.3861,0.6139	-1829.20
0.3028,0.6972	-1818.94
0.3043,0.6957	-1820.59
0.3966,0.6034	-1830.13
0.2797,0.7203	-1809.99
0.3591,0.6409	-1829.02
0.3925,0.6075	-1825.56
0.3214,0.6786	-1811.66
0.3011,0.6989	-1819.79
0.3559,0.6441	-1827.81
0.2814,0.7186	-1814.69
0.3326,0.6674	-1822.26
0.3686,0.6314	-1827.54
0.3120,0.6880	-1825.30
0.3305,0.6695	-1819.40
0.4104,0.5896	-1832.72
0.2634,0.7366	-1810.09
0.3258,0.6742	-1822.16
0.3519,0.6481	-1826.54
0.3145,0.6855	-1822.12
0.2788,0.7212	-1811.88
0.4103,0.5897	-1835.61
0.2456,0.7544	-1816.40
0.3111,0.6889	-1827.71
0.3358,0.6642	-1814.14
0.2857,0.7143	-1821.06
0.2504,0.7496	-1816.01
0.4188,0.5812	-1833.11
0.2984,0.7016	-1812.99
0.2817,0.7183	-1811.88
0.2855,0.7145	-1825.66
0.2618,0.7382	-1814.27
0.2462,0.7538	-1819.70
0.4220,0.5780	-1832.02
0.2989,0.7011	-1828.34
0.2725,0.7275	-1814.89
0.2949,0.7051	-1820.76
0.2468,0.7532	-1798.44
0.2747,0.7253	-1817.74
0.4100,0.5900	-1834.88
0.3270,0.6730	-1821.45
0.2600,0.7400	-1827.96
0.3121,0.6879	-1815.02
0.2538,0.7462	-1816.86
0.2763,0.7237	-1805.16
0.4228,0.5772	-1833.00
0.2784,0.7216	-1817.60
0.2764,0.7236	-1810.94
0.3138,0.6862	-1818.21
0.2754,0.7246	-1807.07
0.3688,0.6312	-1831.31
0.3767,0.6233	-1826.33
0.3297,0.6703	-1822.92
0.3045,0.6955	-1817.29
0.3134,0.6866	-1817.42
0.2307,0.7693	-1811.89
0.3758,0.6242	-1823.74
0.3897,0.6103	-1827.57
0.3835,0.6165	-1829.10
0.3474,0.6526	-1824.59
0.3446,0.6554	-1823.88
0.2288,0.7712	-1808.43
0.3923,0.6077	-1828.18
0.3618,0.6382	-1831.32
0.3651,0.6349	-1827.43
0.3816,0.6184	-1825.64
0.3301,0.6699	-1820.80
0.2416,0.7584	-1809.89
0.3717,0.6283	-1825.55
0.3919,0.6081	-1827.27
0.3105,0.6895	-1818.16
0.3706,0.6294	-1832.90
0.3471,0.6529	-1820.79
0.3134,0.6866	-1818.20
0.4272,0.5728	-1832.98
0.3322,0.6678	-1814.57
0.3329,0.6671	-1827.13
0.3878,0.6122	-1827.00
0.3022,0.6978	-1817.27
0.3118,0.6882	-1821.35
0.3995,0.6005	-1830.28
0.3417,0.6583	-1819.87
0.3190,0.6810	-1819.84
0.3842,0.6158	-1831.95
0.3132,0.6868	-1815.06
0.3336,0.6664	-1822.28
0.4306,0.5694	-1834.60
0.3356,0.6644	-1825.06
0.2722,0.7278	-1814.89
0.4001,0.5999	-1833.55
0.3216,0.6784	-1815.40
0.3326,0.6674	-1826.44
0.3690,0.6310	-1825.41
0.3078,0.6922	-1811.65
0.2767,0.7233	-1812.86
0.4272,0.5728	-1831.22
0.2982,0.7018	-1809.56
0.3445,0.6555	-1827.09
0.3130,0.6870	-1826.06
0.3045,0.6955	-1818.94
0.2698,0.7302	-1814.97
0.4034,0.5966	-1831.27
0.3111,0.6889	-1819.76
0.3294,0.6706	-1820.78
0.3290,0.6710	-1827.90
0.3067,0.6933	-1812.41
0.2924,0.7076	-1819.06
0.3186,0.6814	-1821.35
0.3176,0.6824	-1821.35
0.3525,0.6475	-1825.95
0.2916,0.7084	-1816.41
0.3197,0.6803	-1821.36
0.3011,0.6989	-1813.05
0.2811,0.7189	-1814.70
0.3133,0.6867	-1817.42
0.3588,0.6412	-1824.95
0.2815,0.7185	-1808.13
0.2979,0.7021	-1815.55
0.3196,0.6804	-1816.07
0.3315,0.6685	-1822.94
0.2922,0.7078	-1815.53
0.3332,0.6668	-1817.42
0.2946,0.7054	-1828.62
0.2901,0.7099	-1817.32
0.3649,0.6351	-1824.10
0.3195,0.6805	-1817.58
0.2977,0.7023	-1814.69
0.3256,0.6744	-1825.07
0.2588,0.7412	-1810.21
0.2699,0.7301	-1816.96
0.3338,0.6662	-1825.74
0.2860,0.7140	-1815.56
0.2588,0.7412	-1821.78
0.3704,0.6296	-1827.07
0.2630,0.7370	-1802.89
0.2637,0.7363	-1813.16
0.3466,0.6534	-1819.50
0.2890,0.7110	-1811.04
0.2533,0.7467	-1812.57
0.3453,0.6547	-1818.78
0.2442,0.7558	-1809.74
0.2509,0.7491	-1801.76
0.3149,0.6851	-1819.79
0.2998,0.7002	-1824.05
0.2739,0.7261	-1818.75
0.3475,0.6525	-1820.81
0.2777,0.7223	-1800.42
0.2618,0.7382	-1821.53
0.3387,0.6613	-1817.06
0.2734,0.7266	-1815.84
0.2733,0.7267	-1822.69
0.3489,0.6511	-1825.25
0.2979,0.7021	-1805.26
0.2763,0.7237	-1821.53
0.3644,0.6356	-1829.08
0.2758,0.7242	-1812.87
0.2713,0.7287	-1818.87
0.3664,0.6336	-1830.76
0.2937,0.7063	-1818.16
0.2881,0.7119	-1820.07
0.3345,0.6655	-1826.43
0.2667,0.7333	-1804.97
0.2952,0.7048	-1812.05
0.3245,0.6755	-1820.68
0.2910,0.7090	-1822.65
0.2966,0.7034	-1818.99
0.3217,0.6783	-1818.39
0.3046,0.6954	-1812.33
0.2674,0.7326	-1820.10
0.2890,0.7110	-1819.14
0.3207,0.6793	-1816.11
0.2704,0.7296	-1814.95
0.3296,0.6704	-1819.37
0.3138,0.6862	-1810.39
0.2535,0.7465	-1819.04
0.2862,0.7138	-1814.65
0.3045,0.6955	-1822.24
0.2712,0.7288	-1803.07
0.3181,0.6819	-1815.25
0.2730,0.7270	-1808.02
0.3093,0.6907	-1833.41
0.3144,0.6856	-1826.02
0.3250,0.6750	-1817.03
0.2215,0.7785	-1810.34
0.3725,0.6275	-1827.15
0.2768,0.7232	-1809.01
0.2721,0.7279	-1814.90
0.3049,0.6951	-1816.47
0.3208,0.6792	-1823.62
0.2366,0.7634	-1804.37
0.3624,0.6376	-1830.75
0.3158,0.6842	-1815.93
0.2540,0.7460	-1815.76
0.3172,0.6828	-1828.24
0.3700,0.6300	-1825.99
0.1958,0.8042	-1806.97
0.3527,0.6473	-1827.17
0.3339,0.6661	-1822.29
0.2205,0.7795	-1800.35
0.3161,0.6839	-1825.97
0.3791,0.6209	-1827.94
0.2406,0.7594	-1797.31
0.3170,0.6830	-1826.72
0.3363,0.6637	-1815.55
0.2333,0.7667	-1809.28
0.3326,0.6674	-1818.08
0.3333,0.6667	-1821.58
0.2317,0.7683	-1809.41
0.3122,0.6878	-1811.08
0.3499,0.6501	-1826.51
0.2485,0.7515	-1803.99
0.3396,0.6604	-1822.43
0.3167,0.6833	-1812.89
0.2669,0.7331	-1807.00
0.3106,0.6894	-1819.76
0.3021,0.6979	-1814.76
0.2603,0.7397	-1817.48
0.3623,0.6377	-1829.05
0.3160,0.6840	-1822.11
0.2971,0.7029	-1815.54
0.3226,0.6774	-1816.93
0.3102,0.6898	-1812.56
0.2140,0.7860	-1799.50
0.3067,0.6933	-1831.17
0.3197,0.6803	-1813.81
0.3025,0.6975	-1822.28
0.3562,0.6438	-1822.49
0.2841,0.7159	-1813.74
0.2449,0.7551	-1809.70
0.3109,0.6891	-1814.98
0.3383,0.6617	-1826.42
0.3037,0.6963	-1816.45
0.3329,0.6671	-1816.71
0.2800,0.7200	-1809.05
0.2936,0.7064	-1816.40
0.2943,0.7057	-1822.53
0.3153,0.6847	-1821.34
0.3173,0.6827	-1818.28
0.3285,0.6715	-1825.05
0.2567,0.7433	-1810.28
0.2669,0.7331	-1815.08
0.2835,0.7165	-1804.47
0.3296,0.6704	-1823.63
0.3163,0.6837	-1821.34
0.3517,0.6483	-1824.10
0.3242,0.6758	-1819.20
0.2883,0.7117	-1820.06
0.2871,0.7129	-1811.00
0.3088,0.6912	-1815.72
0.3167,0.6833	-1818.27
0.2805,0.7195	-1814.71
0.3002,0.6998	-1822.34
0.3067,0.6933	-1820.57
0.2683,0.7317	-1812.02
0.3530,0.6470	-1825.96
0.3364,0.6636	-1821.67
0.2674,0.7326	-1816.07
0.2890,0.7110	-1810.14
0.3132,0.6868	-1824.48
0.3038,0.6962	-1813.13
0.3994,0.6006	-1830.68
0.2591,0.7409	-1825.96
0.2800,0.7200	-1817.55
0.3245,0.6755	-1821.41
0.2615,0.7385	-1810.14
0.3245,0.6755	-1818.48
0.4463,0.5537	-1834.83
0.2946,0.7054	-1819.02
0.3093,0.6907	-1826.99
0.2928,0.7072	-1804.07
0.2347,0.7653	-1799.73
0.3183,0.6817	-1809.93
0.4381,0.5619	-1834.99
0.3316,0.6684	-1815.23
0.3142,0.6858	-1823.68
0.3575,0.6425	-1820.21
0.2127,0.7873	-1798.29
0.3128,0.6872	-1815.05
0.4168,0.5832	-1831.66
0.3399,0.6601	-1821.11
0.3016,0.6984	-1817.27
0.3253,0.6747	-1817.77
0.2473,0.7527	-1807.35
0.3143,0.6857	-1810.42
0.3746,0.6254	-1825.70
0.3535,0.6465	-1827.78
0.3322,0.6678	-1822.95
0.3310,0.6690	-1818.71
0.2205,0.7795	-1814.25
0.3038,0.6962	-1821.43
0.3725,0.6275	-1828.72
0.3418,0.6582	-1820.53
0.3319,0.6681	-1827.84
0.3025,0.6975	-1813.93
0.2542,0.7458	-1811.44
0.3224,0.6776	-1830.30
0.4130,0.5870	-1831.78
0.2871,0.7129	-1813.73
0.3426,0.6574	-1824.48
0.2692,0.7308	-1808.00
0.2508,0.7492	-1811.61
0.3413,0.6587	-1828.40
0.3789,0.6211	-1829.91
0.2792,0.7208	-1814.73
0.3162,0.6838	-1809.00
0.2657,0.7343	-1814.11
0.2655,0.7345	-1808.02
0.3287,0.6713	-1824.34
0.3837,0.6163	-1824.83
0.3078,0.6922	-1816.51
0.2585,0.7415	-1813.38
0.2842,0.7158	-1820.21
0.2900,0.7100	-1811.95
0.3349,0.6651	-1824.37
0.3342,0.6658	-1816.09
0.2954,0.7046	-1818.14
0.2873,0.7127	-1812.82
0.3151,0.6849	-1819.79
0.2905,0.7095	-1814.64
0.3321,0.6679	-1820.85
0.3273,0.6727	-1821.45
0.2719,0.7281	-1812.93
0.2908,0.7092	-1807.51
0.2858,0.7142	-1807.32
0.3046,0.6954	-1822.24
0.2704,0.7296	-1815.95
0.3221,0.6779	-1822.12
0.2666,0.7334	-1810.03
0.3300,0.6700	-1822.21
0.3169,0.6831	-1824.42
0.3100,0.6900	-1818.15
0.2511,0.7489	-1815.97
0.2685,0.7315	-1810.01
0.2715,0.7285	-1813.93
0.3299,0.6701	-1817.25
0.3311,0.6689	-1827.15
0.3023,0.6977	-1810.58
0.2743,0.7257	-1812.89
0.2856,0.7144	-1819.23
0.2806,0.7194	-1813.76
0.3130,0.6870	-1811.91
0.3967,0.6033	-1826.78
0.2886,0.7114	-1816.44
0.2513,0.7487	-1802.85
0.2695,0.7305	-1804.01
0.2527,0.7473	-1821.27
0.3340,0.6660	-1818.15
0.4046,0.5954	-1832.10
0.2818,0.7182	-1822.17
0.2982,0.7018	-1822.40
0.2814,0.7186	-1812.82
0.2700,0.7300	-1820.94
0.3358,0.6642	-1820.97
0.3668,0.6332	-1831.85
0.2983,0.7017	-1810.42
0.2704,0.7296	-1811.98
0.2966,0.7034	-1821.58
0.2558,0.7442	-1811.37
0.2903,0.7097	-1815.53
0.3527,0.6473	-1824.74
0.2701,0.7299	-1826.89
0.2295,0.7705	-1802.32
0.3192,0.6808	-1820.60
0.2599,0.7401	-1811.23
0.2916,0.7084	-1820.85
0.3235,0.6765	-1816.23
0.2804,0.7196	-1820.36
0.2445,0.7555	-1815.37
0.2810,0.7190	-1812.82
0.2818,0.7182	-1822.17
0.2733,0.7267	-1811.93
0.2987,0.7013	-1814.70
0.2524,0.7476	-1813.70
0.2979,0.7021	-1818.98
0.3097,0.6903	-1813.34
0.2537,0.7463	-1812.55
0.2987,0.7013	-1814.70
0.3395,0.6605	-1818.43
0.2640,0.7360	-1812.13
0.3455,0.6545	-1814.32
0.3350,0.6650	-1820.25
0.2676,0.7324	-1818.08
0.3079,0.6921	-1822.18
0.3029,0.6971	-1818.11
0.3021,0.6979	-1819.78
0.3292,0.6708	-1822.20
0.3155,0.6845	-1819.79
0.2545,0.7455	-1815.73
0.3314,0.6686	-1826.45
0.2941,0.7059	-1812.03
0.2871,0.7129	-1822.83
0.3484,0.6516	-1816.48
0.3408,0.6592	-1820.49
0.2365,0.7635	-1819.60
0.3205,0.6795	-1821.36
0.3351,0.6649	-1820.94
0.2997,0.7003	-1817.26
0.3090,0.6910	-1818.14
0.3134,0.6866	-1821.34
0.2737,0.7263	-1808.02
0.3331,0.6669	-1823.66
0.3060,0.6940	-1818.94
0.3177,0.6823	-1826.70
0.3020,0.6980	-1825.65
0.3313,0.6687	-1826.45
0.2800,0.7200	-1814.72
0.3103,0.6897	-1812.57
0.3128,0.6872	-1816.62
0.2931,0.7069	-1826.97
0.3215,0.6785	-1822.12
0.3606,0.6394	-1823.88
0.2902,0.7098	-1817.32
0.3082,0.6918	-1822.99
0.3179,0.6821	-1823.64
0.2641,0.7359	-1813.15
0.3099,0.6901	-1814.15
0.3872,0.6128	-1830.17
0.3086,0.6914	-1818.14
0.3091,0.6909	-1822.97
0.3235,0.6765	-1820.66
0.2562,0.7438	-1813.49
0.2956,0.7044	-1819.87
0.3287,0.6713	-1825.05
0.3253,0.6747	-1817.77
0.3653,0.6347	-1825.78
0.3244,0.6756	-1827.28
0.2425,0.7575	-1814.39
0.2719,0.7281	-1826.73
0.3160,0.6840	-1821.34
0.3638,0.6362	-1825.16
0.3452,0.6548	-1830.30
0.3031,0.6969	-1818.94
0.2209,0.7791	-1804.11
0.2933,0.7067	-1821.68
0.3002,0.6998	-1813.03
0.3409,0.6591	-1833.68
0.3393,0.6607	-1815.09
0.3381,0.6619	-1825.08
0.2379,0.7621	-1805.48
0.2769,0.7231	-1824.37
0.3331,0.6669	-1820.19
0.2864,0.7136	-1819.21
0.3633,0.6367	-1826.82
0.3347,0.6653	-1822.31
0.2095,0.7905	-1810.49
0.2810,0.7190	-1815.64
0.3307,0.6693	-1822.22
0.2481,0.7519	-1818.41
0.3604,0.6396	-1827.31
0.3570,0.6430	-1822.53
0.2211,0.7789	-1804.09
0.2868,0.7132	-1821.93
0.3213,0.6787	-1821.37
0.2422,0.7578	-1817.84
0.2913,0.7087	-1812.86
0.3694,0.6306	-1830.24
0.2777,0.7223	-1812.85
0.2585,0.7415	-1812.33
0.3162,0.6838	-1813.63
0.2299,0.7701	-1805.93
0.3009,0.6991	-1819.79
0.3495,0.6505	-1823.40
0.2675,0.7325	-1817.07
0.2891,0.7109	-1808.34
0.3114,0.6886	-1815.79
0.2437,0.7563	-1816.56
0.3079,0.6921	-1827.85
0.3680,0.6320	-1832.39
0.2855,0.7145	-1810.06
0.3325,0.6675	-1826.44
0.3068,0.6932	-1827.90
0.2573,0.7427	-1812.38
0.3355,0.6645	-1816.86
0.3248,0.6752	-1822.15
0.2803,0.7197	-1808.11
0.2749,0.7251	-1814.82
0.2983,0.7017	-1811.27
0.2632,0.7368	-1817.30
0.2996,0.7004	-1807.92
0.3148,0.6852	-1826.79
0.2443,0.7557	-1805.22
0.2972,0.7028	-1817.26
0.2987,0.7013	-1816.41
0.2489,0.7511	-1806.19
0.3344,0.6656	-1825.05
0.3129,0.6871	-1819.77
0.2598,0.7402	-1816.46
0.3231,0.6769	-1821.39
0.3341,0.6659	-1820.91
0.2559,0.7441	-1802.83
0.3156,0.6844	-1808.96
0.3685,0.6315	-1822.15
0.2854,0.7146	-1810.06
0.3211,0.6789	-1810.14
0.3453,0.6547	-1821.34
0.2612,0.7388	-1811.18
0.2726,0.7274	-1812.92
0.3908,0.6092	-1824.98
0.2883,0.7117	-1806.51
0.3288,0.6712	-1830.04
0.3684,0.6316	-1827.53
0.2935,0.7065	-1819.92
0.3375,0.6625	-1827.77
0.3605,0.6395	-1822.15
0.3133,0.6867	-1822.13
0.3112,0.6888	-1818.97
0.3271,0.6729	-1822.89
0.2648,0.7352	-1813.13
0.3141,0.6859	-1817.44
0.3747,0.6253	-1833.90
0.2970,0.7030	-1819.85
0.3029,0.6971	-1822.27
0.3300,0.6700	-1820.80
0.2621,0.7379	-1808.05
0.3149,0.6851	-1823.67
0.3548,0.6452	-1820.62
0.3137,0.6863	-1817.43
0.2493,0.7507	-1803.97
0.3061,0.6939	-1821.39
0.2872,0.7128	-1814.64
0.3404,0.6596	-1828.41
0.3208,0.6792	-1825.87
0.3307,0.6693	-1821.52
0.2206,0.7794	-1810.44
0.2483,0.7517	-1818.39
0.2753,0.7247	-1813.84
0.3330,0.6670	-1812.54
0.3354,0.6646	-1817.54
0.3588,0.6412	-1823.79
0.2628,0.7372	-1809.07
0.2641,0.7359	-1805.98
0.3250,0.6750	-1827.26
0.2978,0.7022	-1815.55
0.3158,0.6842	-1819.79
0.3914,0.6086	-1832.09
0.2974,0.7026	-1813.82
0.2478,0.7522	-1819.54
0.3074,0.6926	-1811.63
0.2414,0.7586	-1815.62
0.3051,0.6949	-1814.82
0.3804,0.6196	-1829.95
0.3198,0.6802	-1819.85
0.2643,0.7357	-1803.93
0.2919,0.7081	-1816.41
0.2602,0.7398	-1808.08
0.2794,0.7206	-1827.04
0.3345,0.6655	-1824.36
0.3290,0.6710	-1815.78
0.2449,0.7551	-1831.09
0.2586,0.7414	-1808.11
0.2820,0.7180	-1819.36
0.2745,0.7255	-1807.05
0.3368,0.6632	-1821.00
0.3446,0.6554	-1825.16
0.2461,0.7539	-1819.71
0.2682,0.7318	-1811.02
0.2981,0.7019	-1818.12
0.2803,0.7197	-1804.34
0.2870,0.7130	-1823.74
0.3151,0.6849	-1825.22
0.2400,0.7600	-1820.37
0.3221,0.6779	-1822.12
0.3118,0.6882	-1824.51
0.3129,0.6871	-1821.34
0.3005,0.6995	-1820.64
0.3133,0.6867	-1818.99
0.2867,0.7133	-1804.62
0.3331,0.6669	-1819.49
0.2903,0.7097	-1820.00
0.3290,0.6710	-1816.50
0.3214,0.6786	-1819.13
0.2934,0.7066	-1817.28
0.3220,0.6780	-1821.38
0.3468,0.6532	-1825.20
0.2822,0.7178	-1817.48
0.3292,0.6708	-1817.93
0.2926,0.7074	-1807.58
0.3030,0.6970	-1825.61
0.2866,0.7134	-1819.20
0.3097,0.6903	-1818.95
0.2814,0.7186	-1817.51
0.3177,0.6823	-1824.40
0.2631,0.7369	-1817.31
0.2650,0.7350	-1813.12
0.2530,0.7470	-1814.75
0.3367,0.6633	-1824.39
0.2533,0.7467	-1811.48
0.3483,0.6517	-1816.46
0.2526,0.7474	-1813.69
0.2787,0.7213	-1816.64
0.2529,0.7471	-1815.83
0.3324,0.6676	-1820.16
0.3045,0.6955	-1813.98
0.3474,0.6526	-1826.48
0.2762,0.7238	-1816.72
0.2839,0.7161	-1818.36
0.2813,0.7187	-1813.76
0.3122,0.6878	-1822.92
0.2909,0.7091	-1810.18
0.3682,0.6318	-1822.13
0.2891,0.7109	-1822.73
0.2897,0.7103	-1814.64
0.2955,0.7045	-1819.88
0.3428,0.6572	-1823.18
0.3134,0.6866	-1811.93
0.2873,0.7127	-1820.09
0.2872,0.7128	-1820.09
0.2776,0.7224	-1819.54
0.2660,0.7340	-1813.09
0.3570,0.6430	-1823.71
0.3190,0.6810	-1817.56
0.2785,0.7215	-1810.93
0.2865,0.7135	-1817.38
0.2781,0.7219	-1816.66
0.2810,0.7190	-1824.10
0.3215,0.6785	-1819.88
0.3082,0.6918	-1815.71
0.2720,0.7280	-1813.92
0.2947,0.7053	-1809.42
0.2943,0.7057	-1829.52
0.3098,0.6902	-1826.16
0.3394,0.6606	-1817.10
0.3075,0.6925	-1821.38
0.2692,0.7308	-1803.01
0.3037,0.6963	-1814.79
0.3060,0.6940	-1814.03
0.2671,0.7329	-1802.96
0.3879,0.6121	-1834.30
0.3037,0.6963	-1822.26
0.2357,0.7643	-1812.64
0.3292,0.6708	-1827.89
0.3065,0.6935	-1815.67
0.2683,0.7317	-1812.02
0.3554,0.6446	-1822.45
0.3456,0.6544	-1821.35
0.2863,0.7137	-1814.65
0.3432,0.6568	-1821.89
0.2901,0.7099	-1805.69
0.2735,0.7265	-1810.95
0.3607,0.6393	-1827.32
0.3375,0.6625	-1816.98
0.2844,0.7156	-1810.97
0.3022,0.6978	-1822.29
0.2887,0.7113	-1820.05
0.2937,0.7063	-1811.14
0.3525,0.6475	-1821.08
0.3476,0.6524	-1819.56
0.3008,0.6992	-1809.67
0.2706,0.7294	-1805.03
0.3173,0.6827	-1815.98
0.3024,0.6976	-1822.29
0.3129,0.6871	-1822.92
0.3518,0.6482	-1824.10
0.3100,0.6900	-1826.16
0.2900,0.7100	-1808.37
0.3257,0.6743	-1819.97
0.2901,0.7099	-1816.43
0.3391,0.6609	-1817.08
0.3644,0.6356	-1827.41
0.3321,0.6679	-1823.65
0.3274,0.6726	-1817.85
0.3364,0.6636	-1820.31
0.2817,0.7183	-1810.01
0.3357,0.6643	-1828.47
0.3318,0.6682	-1819.45
0.3165,0.6835	-1818.26
0.3266,0.6734	-1817.82
0.3141,0.6859	-1822.12
0.2718,0.7282	-1817.86
0.3479,0.6521	-1818.94
0.3414,0.6586	-1820.52
0.2825,0.7175	-1813.75
0.3130,0.6870	-1819.77
0.2831,0.7169	-1821.18
0.2727,0.7273	-1816.84
0.3341,0.6659	-1822.29
0.3269,0.6731	-1822.89
0.2992,0.7008	-1812.15
0.3387,0.6613	-1829.77
0.2631,0.7369	-1818.34
0.2791,0.7209	-1816.63
0.3547,0.6453	-1828.99
0.3278,0.6722	-1819.31
0.3385,0.6615	-1819.72
0.3032,0.6968	-1806.46
0.2745,0.7255	-1822.61
0.2719,0.7281	-1816.87
0.3622,0.6378	-1832.45
0.3077,0.6923	-1824.62
0.3449,0.6551	-1825.81
0.2706,0.7294	-1809.99
0.2980,0.7020	-1818.12
0.2946,0.7054	-1814.66
0.3725,0.6275	-1824.02
0.3550,0.6450	-1826.01
0.3331,0.6669	-1825.74
0.2755,0.7245	-1820.61
0.2354,0.7646	-1817.37
0.2974,0.7026	-1814.68
0.3897,0.6103	-1834.30
0.3136,0.6864	-1815.86
0.3557,0.6443	-1831.37
0.2928,0.7072	-1814.64
0.2403,0.7597	-1816.88
0.3259,0.6741	-1818.52
0.3920,0.6080	-1832.55
0.3114,0.6886	-1814.20
0.3486,0.6514	-1827.12
0.3169,0.6831	-1823.65
0.2658,0.7342	-1814.11
0.2885,0.7115	-1820.05
0.3746,0.6254	-1830.32
0.3379,0.6621	-1819.02
0.2991,0.7009	-1823.22
0.2891,0.7109	-1815.54
0.2910,0.7090	-1814.64
0.3158,0.6842	-1822.89
0.3104,0.6896	-1819.76
0.3240,0.6760	-1820.67
0.2860,0.7140	-1815.56
0.2622,0.7378	-1813.22
0.3238,0.6762	-1822.87
0.3014,0.6986	-1815.59
0.3101,0.6899	-1816.56
0.2955,0.7045	-1816.40
0.2771,0.7229	-1809.97
0.2532,0.7468	-1812.57
0.3165,0.6835	-1819.03
0.3277,0.6723	-1812.84
0.3054,0.6946	-1823.05
0.2537,0.7463	-1804.99
0.2696,0.7304	-1809.00
0.2395,0.7605	-1812.33
0.2575,0.7425	-1807.07
0.2983,0.7017	-1819.83
0.3008,0.6992	-1820.64
0.3238,0.6762	-1818.45
0.2901,0.7099	-1816.43
0.2701,0.7299	-1818.94
0.2743,0.7257	-1811.92
0.2877,0.7123	-1811.01
0.3042,0.6958	-1820.59
0.3181,0.6819	-1815.25
0.3080,0.6920	-1824.61
0.3147,0.6853	-1824.45
0.2809,0.7191	-1812.82
0.2765,0.7235	-1812.86
0.2814,0.7186	-1816.57
0.3221,0.6779	-1816.92
0.2787,0.7213	-1812.84
0.2758,0.7242	-1818.66
0.3440,0.6560	-1822.57
0.2542,0.7458	-1808.22
0.3100,0.6900	-1816.55
0.3223,0.6777	-1825.10
0.2925,0.7075	-1810.23
0.3231,0.6769	-1821.39
0.3614,0.6386	-1826.76
0.2585,0.7415	-1815.49
0.3464,0.6536	-1822.02
0.3096,0.6904	-1818.15
0.2767,0.7233	-1822.47
0.3507,0.6493	-1833.30
0.3375,0.6625	-1818.33
0.2350,0.7650	-1807.98
0.3596,0.6404	-1821.52
0.3357,0.6643	-1818.23
0.2673,0.7327	-1825.15
0.3396,0.6604	-1829.08
0.2787,0.7213	-1815.69
0.2873,0.7127	-1820.09
0.3462,0.6538	-1823.92
0.2733,0.7267	-1808.02
0.2999,0.7001	-1815.57
0.3325,0.6675	-1815.29
0.3301,0.6699	-1821.51
0.2770,0.7230	-1811.89
0.3223,0.6777	-1814.69
0.2855,0.7145	-1805.48
0.3025,0.6975	-1813.09
0.3462,0.6538	-1822.65
0.3371,0.6629	-1821.69
0.2651,0.7349	-1808.02
0.3256,0.6744	-1821.42
0.2963,0.7037	-1814.67
0.2870,0.7130	-1806.45
0.3282,0.6718	-1825.05
0.2900,0.7100	-1820.90
0.3134,0.6866	-1813.50
0.2660,0.7340	-1818.16
0.2454,0.7546	-1800.69
0.2716,0.7284	-1816.89
0.3173,0.6827	-1828.24
0.2911,0.7089	-1813.75
0.3105,0.6895	-1816.57
0.2491,0.7509	-1802.87
0.2471,0.7529	-1797.33
0.2491,0.7509	-1811.70
0.2962,0.7038	-1830.25
0.3051,0.6949	-1818.11
0.3242,0.6758	-1819.94
0.2588,0.7412	-1815.47
0.2855,0.7145	-1811.90
0.3146,0.6854	-1823.68
0.3014,0.6986	-1821.47
0.2802,0.7198	-1821.32
0.2631,0.7369	-1816.28
0.2441,0.7559	-1809.74
0.3457,0.6543	-1825.82
0.2795,0.7205	-1811.88
0.3216,0.6784	-1816.15
0.2539,0.7461	-1810.38
0.2744,0.7256	-1828.45
0.2526,0.7474	-1810.43
0.3662,0.6338	-1827.46
0.2778,0.7222	-1816.67
0.3144,0.6856	-1814.32
0.2721,0.7279	-1811.95
0.2975,0.7025	-1813.82
0.2524,0.7476	-1806.10
0.3627,0.6373	-1827.93
0.2848,0.7152	-1821.10
0.2383,0.7617	-1800.81
0.2584,0.7416	-1811.27
0.3038,0.6962	-1813.13
0.2229,0.7771	-1807.71
0.3126,0.6874	-1823.71
0.2655,0.7345	-1814.12
0.2240,0.7760	-1807.61
0.2591,0.7409	-1809.15
0.3208,0.6792	-1822.12
0.2530,0.7470	-1816.91
0.3048,0.6952	-1819.76
0.2807,0.7193	-1808.12
0.2416,0.7584	-1817.90
0.2737,0.7263	-1817.78
0.3623,0.6377	-1821.70
0.2515,0.7485	-1812.66
0.3009,0.6991	-1825.70
0.3232,0.6768	-1820.65
0.2439,0.7561	-1800.70
0.2463,0.7537	-1814.10
0.3762,0.6238	-1828.32
0.2801,0.7199	-1814.71
0.3196,0.6804	-1819.09
0.3450,0.6550	-1820.68
0.2928,0.7072	-1813.76
0.2615,0.7385	-1810.14
0.3936,0.6064	-1829.12
0.3233,0.6767	-1818.44
0.3321,0.6679	-1828.54
0.3864,0.6136	-1826.44
0.3041,0.6959	-1824.73
0.2531,0.7469	-1810.41
0.3941,0.6059	-1829.15
0.3256,0.6744	-1831.62
0.3265,0.6735	-1822.89
0.3619,0.6381	-1825.64
0.3476,0.6524	-1825.22
0.2671,0.7329	-1813.05
0.4180,0.5820	-1831.08
0.2825,0.7175	-1807.22
0.2961,0.7039	-1819.00
0.3612,0.6388	-1828.47
0.3495,0.6505	-1828.99
0.2471,0.7529	-1812.93
0.3808,0.6192	-1828.02
0.2778,0.7222	-1810.93
0.3257,0.6743	-1820.70
0.3647,0.6353	-1830.20
0.3091,0.6909	-1813.32
0.2606,0.7394	-1815.37
0.3470,0.6530	-1828.37
0.2969,0.7031	-1814.68
0.3253,0.6747	-1817.77
0.3313,0.6687	-1824.34
0.3199,0.6801	-1818.34
0.2770,0.7230	-1816.69
0.3616,0.6384	-1826.77
0.3384,0.6616	-1819.05
0.3351,0.6649	-1823.69
0.3881,0.6119	-1827.92
0.3296,0.6704	-1812.97
0.2821,0.7179	-1820.29
0.3102,0.6898	-1824.55
0.3373,0.6627	-1826.42
0.3686,0.6314	-1829.15
0.3807,0.6193	-1825.58
0.2968,0.7032	-1815.54
0.2682,0.7318	-1817.04
0.3043,0.6957	-1826.38
0.3582,0.6418	-1815.59
0.3753,0.6247	-1824.72
0.3657,0.6343	-1832.96
0.2928,0.7072	-1818.17
0.2773,0.7227	-1816.68
0.2709,0.7291	-1807.02
0.3567,0.6433	-1827.23
0.3629,0.6371	-1823.43
0.3318,0.6682	-1818.75
0.2791,0.7209	-1812.83
0.3025,0.6975	-1815.60
0.2722,0.7278	-1806.04
0.3612,0.6388	-1823.91
0.3286,0.6714	-1822.91
0.3473,0.6527	-1826.48
0.2995,0.7005	-1819.81
0.3204,0.6796	-1818.35
0.3126,0.6874	-1812.68
0.3736,0.6264	-1829.27
0.3513,0.6487	-1822.24
0.3102,0.6898	-1818.16
0.3336,0.6664	-1820.20
0.3431,0.6569	-1821.24
0.3012,0.6988	-1820.63
0.3573,0.6427	-1826.66
0.3500,0.6500	-1818.47
0.3292,0.6708	-1814.37
0.3160,0.6840	-1825.20
0.3185,0.6815	-1821.35
0.2992,0.7008	-1817.26
0.3881,0.6119	-1827.01
0.3550,0.6450	-1823.62
0.2988,0.7012	-1823.23
0.3015,0.6985	-1826.51
0.2848,0.7152	-1807.29
0.2741,0.7259	-1820.68
0.3430,0.6570	-1825.14
0.3466,0.6534	-1827.10
0.2895,0.7105	-1810.15
0.2959,0.7041	-1816.40
0.3082,0.6918	-1822.18
0.2527,0.7473	-1803.92
0.3315,0.6685	-1830.66
0.3316,0.6684	-1823.64
0.3110,0.6890	-1805.44
0.2875,0.7125	-1814.64
0.3634,0.6366	-1824.58
0.2567,0.7433	-1812.41
0.3104,0.6896	-1819.76
0.3372,0.6628	-1818.99
0.3678,0.6322	-1824.26
0.3084,0.6916	-1816.52
0.3660,0.6340	-1825.81
0.2706,0.7294	-1816.93
0.2960,0.7040	-1809.47
0.3414,0.6586	-1822.49
0.3994,0.6006	-1833.94
0.2660,0.7340	-1814.10
0.3380,0.6620	-1821.04
0.2797,0.7203	-1818.51
0.3317,0.6683	-1820.14
0.3511,0.6489	-1824.08
0.3761,0.6239	-1827.81
0.2848,0.7152	-1823.86
0.3417,0.6583	-1817.91
0.2491,0.7509	-1813.90
0.3529,0.6471	-1827.78
0.3812,0.6188	-1831.91
0.3650,0.6350	-1830.20
0.2957,0.7043	-1824.21
0.3141,0.6859	-1823.68
0.2291,0.7709	-1813.26
0.3095,0.6905	-1820.56
0.4023,0.5977	-1830.03
0.3471,0.6529	-1825.84
0.2926,0.7074	-1818.17
0.3184,0.6816	-1825.92
0.2673,0.7327	-1825.15
0.2839,0.7161	-1816.52
0.3665,0.6335	-1831.85
0.2960,0.7040	-1812.94
0.3157,0.6843	-1811.29
0.3140,0.6860	-1820.56
0.3003,0.6997	-1811.34
0.3590,0.6410	-1827.28
0.4338,0.5662	-1833.43
0.3189,0.6811	-1813.01
0.3017,0.6983	-1819.78
0.3536,0.6464	-1822.96
0.2891,0.7109	-1821.84
0.4073,0.5927	-1833.34
0.3810,0.6190	-1826.57
0.2833,0.7167	-1809.10
0.3081,0.6919	-1818.14
0.3359,0.6641	-1824.38
0.3162,0.6838	-1814.40
0.4045,0.5955	-1833.26
0.3313,0.6687	-1824.34
0.2892,0.7108	-1816.44
0.2683,0.7317	-1804.99
0.3523,0.6477	-1821.07
0.3180,0.6820	-1816.77
0.4010,0.5990	-1830.36
0.3067,0.6933	-1811.60
0.2680,0.7320	-1806.00
0.2647,0.7353	-1816.20
0.3325,0.6675	-1823.65
0.3007,0.6993	-1815.58
0.3813,0.6187	-1834.33
0.3226,0.6774	-1811.74
0.2878,0.7122	-1814.64
0.2904,0.7096	-1820.89
0.3585,0.6415	-1827.27
0.3073,0.6927	-1816.50
0.4017,0.5983	-1832.39
0.3139,0.6861	-1826.03
0.2890,0.7110	-1822.74
0.2737,0.7263	-1813.88
0.3503,0.6497	-1828.37
0.3109,0.6891	-1815.78
0.4075,0.5925	-1831.10
0.3004,0.6996	-1821.49
0.3234,0.6766	-1814.02
0.2798,0.7202	-1819.45
0.3268,0.6732	-1822.17
0.3189,0.6811	-1820.59
0.3958,0.6042	-1829.24
0.2557,0.7443	-1819.93
0.2933,0.7067	-1818.17
0.2606,0.7394	-1818.50
0.2899,0.7101	-1820.91
0.3469,0.6531	-1824.57
0.3946,0.6054	-1827.89
0.3047,0.6953	-1814.81
0.3395,0.6605	-1823.09
0.2962,0.7038	-1812.07
0.3174,0.6826	-1819.05
0.3488,0.6512	-1826.50
0.3704,0.6296	-1827.60
0.2907,0.7093	-1818.21
0.2993,0.7007	-1820.66
0.3518,0.6482	-1827.15
0.2736,0.7264	-1818.76
0.3393,0.6607	-1821.76
0.3098,0.6902	-1818.95
0.3249,0.6751	-1819.22
0.2766,0.7234	-1818.62
0.3204,0.6796	-1832.64
0.2176,0.7824	-1799.26
0.2948,0.7052	-1812.04
0.3021,0.6979	-1817.27
0.3157,0.6843	-1822.11
0.2831,0.7169	-1812.81
0.3188,0.6812	-1819.07
0.2224,0.7776	-1798.99
0.2765,0.7235	-1813.82
0.3368,0.6632	-1829.13
0.3260,0.6740	-1833.05
0.3107,0.6893	-1823.74
0.3052,0.6948	-1818.94
0.2426,0.7574	-1799.58
0.2838,0.7162	-1818.37
0.3736,0.6264	-1830.30
0.3657,0.6343	-1824.15
0.2840,0.7160	-1810.96
0.3257,0.6743	-1811.24
0.2697,0.7303	-1818.96
0.2966,0.7034	-1814.67
0.4485,0.5515	-1835.83
0.3688,0.6312	-1826.47
0.2646,0.7354	-1807.00
0.2994,0.7006	-1813.86
0.2849,0.7151	-1811.89
0.3106,0.6894	-1821.35
0.4033,0.5967	-1829.70
0.3758,0.6242	-1826.28
0.2655,0.7345	-1797.84
0.3401,0.6599	-1835.71
0.3738,0.6262	-1829.79
0.3022,0.6978	-1818.94
0.3331,0.6669	-1831.30
0.3619,0.6381	-1831.88
0.2464,0.7536	-1796.21
0.2935,0.7065	-1830.46
0.3895,0.6105	-1831.60
0.3300,0.6700	-1820.09
0.3285,0.6715	-1829.34
0.3262,0.6738	-1824.34
0.2850,0.7150	-1814.66
0.2781,0.7219	-1809.98
0.3612,0.6388	-1826.76
0.3435,0.6565	-1823.85
0.3664,0.6336	-1826.92
0.2827,0.7173	-1827.71
0.2848,0.7152	-1822.02
0.2958,0.7042	-1821.61
0.3630,0.6370	-1826.25
0.2995,0.7005	-1824.06
0.3728,0.6272	-1828.21
0.3166,0.6834	-1823.65
0.3154,0.6846	-1815.92
0.3261,0.6739	-1816.35
0.3400,0.6600	-1821.12
0.2768,0.7232	-1822.46
0.3535,0.6465	-1819.93
0.3695,0.6305	-1829.17
0.3238,0.6762	-1814.04
0.3432,0.6568	-1823.19
0.3515,0.6485	-1820.41
0.3071,0.6929	-1815.69
0.3857,0.6143	-1831.51
0.4083,0.5917	-1836.34
0.3294,0.6706	-1821.49
0.3421,0.6579	-1819.24
0.3392,0.6608	-1827.09
0.2856,0.7144	-1815.57
0.3817,0.6183	-1829.03
0.3925,0.6075	-1829.06
0.2955,0.7045	-1811.19
0.3454,0.6546	-1825.82
0.3166,0.6834	-1815.96
0.2828,0.7172	-1813.75
0.3556,0.6444	-1826.62
0.3723,0.6277	-1816.70
0.2715,0.7285	-1812.94
0.3524,0.6476	-1822.29
0.3361,0.6639	-1820.30
0.3079,0.6921	-1818.13
0.3302,0.6698	-1814.44
0.3577,0.6423	-1824.91
0.2590,0.7410	-1803.90
0.3347,0.6653	-1827.11
0.3251,0.6749	-1827.99
0.3601,0.6399	-1833.63
0.3116,0.6884	-1816.59
0.3390,0.6610	-1821.75
0.2663,0.7337	-1809.03
0.2984,0.7016	-1818.12
0.2837,0.7163	-1822.08
0.2929,0.7071	-1809.36
0.2917,0.7083	-1812.87
0.3251,0.6749	-1830.18
0.2981,0.7019	-1813.84
0.3014,0.6986	-1811.38
0.3046,0.6954	-1815.64
0.2821,0.7179	-1822.16
0.2754,0.7246	-1811.91
0.3357,0.6643	-1823.69
0.2660,0.7340	-1820.19
0.2957,0.7043	-1820.74
0.3012,0.6988	-1812.22
0.2912,0.7088	-1822.64
0.3308,0.6692	-1817.30
0.3345,0.6655	-1824.36
0.2362,0.7638	-1807.91
0.3117,0.6883	-1817.39
0.2595,0.7405	-1810.19
0.2609,0.7391	-1815.36
0.3469,0.6531	-1822.04
0.3863,0.6137	-1828.75
0.2594,0.7406	-1807.04
0.2847,0.7153	-1814.66
0.2782,0.7218	-1812.84
0.2826,0.7174	-1820.27
0.3698,0.6302	-1833.44
0.3564,0.6436	-1823.09
0.2718,0.7282	-1816.88
0.3369,0.6631	-1825.07
0.3073,0.6927	-1823.82
0.2835,0.7165	-1813.74
0.3618,0.6382	-1823.37
0.3454,0.6546	-1823.90
0.2851,0.7149	-1814.65
0.3059,0.6941	-1823.85
0.3153,0.6847	-1824.44
0.2722,0.7278	-1816.86
0.3579,0.6421	-1826.09
0.3309,0.6691	-1827.16
0.2414,0.7586	-1814.48
0.2819,0.7181	-1823.11
0.3030,0.6970	-1829.77
0.2819,0.7181	-1814.69
0.3669,0.6331	-1827.48
0.3727,0.6273	-1826.12
0.2648,0.7352	-1805.98
0.3119,0.6881	-1811.06
0.3012,0.6988	-1814.74
0.2755,0.7245	-1819.64
0.3061,0.6939	-1819.76
0.3280,0.6720	-1821.47
0.2578,0.7422	-1813.41
0.2681,0.7319	-1820.06
0.3323,0.6677	-1820.86
0.3068,0.6932	-1807.53
0.3110,0.6890	-1822.15
0.3035,0.6965	-1810.63
0.2671,0.7329	-1811.04
0.2781,0.7219	-1820.47
0.2929,0.7071	-1807.60
0.2830,0.7170	-1818.39
0.2980,0.7020	-1818.98
0.3068,0.6932	-1806.71
0.2683,0.7317	-1812.02
0.2671,0.7329	-1816.08
0.2947,0.7053	-1812.04
0.3063,0.6937	-1816.49
0.2882,0.7118	-1830.91
0.2901,0.7099	-1809.27
0.3043,0.6957	-1807.36
0.2567,0.7433	-1807.09
0.3104,0.6896	-1822.95
0.3703,0.6297	-1825.47
0.2902,0.7098	-1812.85
0.2914,0.7086	-1811.97
0.2644,0.7356	-1814.16
0.2670,0.7330	-1817.10
0.3110,0.6890	-1817.37
0.3475,0.6525	-1829.00
0.2587,0.7413	-1812.32
0.3117,0.6883	-1817.39
0.2542,0.7458	-1808.22
0.2992,0.7008	-1819.81
0.3165,0.6835	-1819.03
0.3284,0.6716	-1822.19
0.2683,0.7317	-1817.03
0.2858,0.7142	-1822.89
0.2452,0.7548	-1815.30
0.3258,0.6742	-1827.97
0.3648,0.6352	-1829.09
0.3405,0.6595	-1824.44
0.2512,0.7488	-1810.49
0.2628,0.7372	-1817.33
0.2743,0.7257	-1812.89
0.3193,0.6807	-1820.60
0.3379,0.6621	-1820.37
0.2971,0.7029	-1824.15
0.2607,0.7393	-1810.15
0.2624,0.7376	-1816.32
0.2798,0.7202	-1813.77
0.3719,0.6281	-1830.80
0.3276,0.6724	-1823.62
0.2780,0.7220	-1816.66
0.2320,0.7680	-1811.78
0.2766,0.7234	-1819.59
0.2620,0.7380	-1817.37
0.3501,0.6499	-1828.99
0.3218,0.6782	-1820.63
0.2954,0.7046	-1819.01
0.2702,0.7298	-1809.00
0.3161,0.6839	-1825.97
0.2637,0.7363	-1809.06
0.3633,0.6367	-1827.94
0.3044,0.6956	-1824.72
0.2803,0.7197	-1825.08
0.2516,0.7484	-1822.47
0.3390,0.6610	-1828.42
0.3256,0.6744	-1823.61
0.3469,0.6531	-1823.94
0.2662,0.7338	-1810.04
0.2989,0.7011	-1803.62
0.3116,0.6884	-1819.76
0.3279,0.6721	-1824.33
0.3353,0.6647	-1822.32
0.3507,0.6493	-1822.83
0.2923,0.7077	-1815.53
0.2894,0.7106	-1817.33
0.2717,0.7283	-1814.91
0.2478,0.7522	-1801.78
0.3411,0.6589	-1820.50
0.3478,0.6522	-1825.23
0.2969,0.7031	-1813.82
0.3201,0.6799	-1817.59
0.2888,0.7112	-1820.04
0.2912,0.7088	-1813.75
0.2921,0.7079	-1811.99
0.2774,0.7226	-1820.51
0.3242,0.6758	-1824.34
0.2904,0.7096	-1809.28
0.3262,0.6738	-1817.81
0.2795,0.7205	-1819.46
0.2504,0.7496	-1819.31
0.2938,0.7062	-1818.16
0.3320,0.6680	-1819.45
0.3138,0.6862	-1822.12
0.3524,0.6476	-1822.90
0.2728,0.7272	-1811.94
0.2482,0.7518	-1811.75
0.3082,0.6918	-1817.33
0.3293,0.6707	-1822.20
0.3427,0.6573	-1825.13
0.3348,0.6652	-1820.94
0.3003,0.6997	-1818.11
0.2779,0.7221	-1811.89
0.3087,0.6913	-1818.14
0.3319,0.6681	-1822.95
0.3414,0.6586	-1827.09
0.3165,0.6835	-1818.26
0.2824,0.7176	-1818.41
0.2260,0.7740	-1807.43
0.2949,0.7051	-1820.76
0.3389,0.6611	-1827.09
0.3276,0.6724	-1827.93
0.3178,0.6822	-1823.64
0.2689,0.7311	-1816.01
0.2374,0.7626	-1805.50
0.2719,0.7281	-1820.81
0.3330,0.6670	-1814.63
0.3145,0.6855	-1818.22
0.3349,0.6651	-1831.23
0.2958,0.7042	-1811.20
0.2328,0.7672	-1811.71
0.3021,0.6979	-1810.57
0.3533,0.6467	-1819.32
0.3100,0.6900	-1822.16
0.2698,0.7302	-1813.98
0.3062,0.6938	-1820.57
0.3084,0.6916	-1811.68
0.3506,0.6494	-1827.14
0.3960,0.6040	-1829.26
0.3197,0.6803	-1822.87
0.2758,0.7242	-1820.59
0.2776,0.7224	-1814.76
0.3106,0.6894	-1819.76
0.3491,0.6509	-1827.75
0.3431,0.6569	-1821.89
0.3092,0.6908	-1814.93
0.2983,0.7017	-1809.56
0.2515,0.7485	-1817.03
0.3279,0.6721	-1820.03
0.3606,0.6394	-1831.32
0.3511,0.6489	-1827.15
0.3099,0.6901	-1826.16
0.3159,0.6841	-1814.39
0.2745,0.7255	-1813.86
0.3332,0.6668	-1822.27
0.3349,0.6651	-1827.80
0.3602,0.6398	-1826.16
0.3200,0.6800	-1822.87
0.3136,0.6864	-1829.17
0.2985,0.7015	-1819.83
0.3007,0.6993	-1813.89
0.3370,0.6630	-1819.66
0.3400,0.6600	-1822.44
0.3198,0.6802	-1826.64
0.3134,0.6866	-1824.48
0.3124,0.6876	-1816.61
0.2668,0.7332	-1807.00
0.3036,0.6964	-1816.45
0.3579,0.6421	-1828.43
0.3516,0.6484	-1825.32
0.2756,0.7244	-1816.73
0.3234,0.6766	-1820.66
0.3425,0.6575	-1827.74
0.3553,0.6447	-1828.40
0.3530,0.6470	-1823.53
0.3233,0.6767	-1828.78
0.2893,0.7107	-1820.03
0.3248,0.6752	-1822.15
0.3106,0.6894	-1822.95
0.3002,0.6998	-1818.96
0.3174,0.6826	-1815.98
0.3459,0.6541	-1824.55
0.3057,0.6943	-1826.32
0.2947,0.7053	-1813.78
0.2954,0.7046	-1819.88
0.2866,0.7134	-1820.11
0.3586,0.6414	-1824.36
0.3745,0.6255	-1829.29
0.3095,0.6905	-1820.56
0.2837,0.7163	-1821.15
0.2977,0.7023	-1822.41
0.2697,0.7303	-1808.00
0.3649,0.6351	-1826.87
0.3871,0.6129	-1827.87
0.3165,0.6835	-1827.50
0.2615,0.7385	-1819.48
0.3321,0.6679	-1826.44
0.2784,0.7216	-1809.98
0.3518,0.6482	-1825.32
0.3739,0.6261	-1826.69
0.2704,0.7296	-1816.94
0.2896,0.7104	-1811.05
0.3242,0.6758	-1824.34
0.3042,0.6958	-1822.25
0.3250,0.6750	-1817.76
0.3349,0.6651	-1831.92
0.2627,0.7373	-1817.33
0.2839,0.7161	-1808.19
0.3248,0.6752	-1816.29
0.2583,0.7417	-1807.06
0.3118,0.6882	-1827.68
0.3378,0.6622	-1827.09
0.2888,0.7112	-1814.64
0.3258,0.6742	-1821.43
0.3205,0.6795	-1822.12
0.3016,0.6984	-1816.43
0.3422,0.6578	-1827.74
0.3481,0.6519	-1826.49
0.3189,0.6811	-1822.11
0.3224,0.6776	-1817.67
0.3253,0.6747	-1821.42
0.3281,0.6719	-1823.62
0.3594,0.6406	-1828.44
0.2870,0.7130	-1813.73
0.2798,0.7202	-1819.45
0.3518,0.6482	-1827.15
0.3518,0.6482	-1827.15
0.3403,0.6597	-1822.45
0.3257,0.6743	-1826.52
0.2518,0.7482	-1807.20
0.3123,0.6877	-1815.82
0.3341,0.6659	-1827.12
0.3152,0.6848	-1824.44
0.3158,0.6842	-1826.75
0.3185,0.6815	-1817.55
0.2560,0.7440	-1816.71
0.3260,0.6740	-1818.53
0.3247,0.6753	-1813.35
0.2941,0.7059	-1818.15
0.3292,0.6708	-1819.35
0.3142,0.6858	-1815.88
0.3044,0.6956	-1818.94
0.2865,0.7135	-1821.95
0.3516,0.6484	-1822.87
0.3220,0.6780	-1814.68
0.2832,0.7168	-1808.17
0.2906,0.7094	-1816.42
0.3018,0.6982	-1814.75
0.2507,0.7493	-1809.42
0.3956,0.6044	-1829.66
0.2991,0.7009	-1824.92
0.2950,0.7050	-1812.92
0.3144,0.6856	-1824.46
0.3460,0.6540	-1827.74
0.2400,0.7600	-1811.14
0.3385,0.6615	-1833.12
0.2904,0.7096	-1811.96
0.2742,0.7258	-1813.87
0.3112,0.6888	-1826.91
0.3505,0.6495	-1818.50
0.2496,0.7504	-1807.27
0.3137,0.6863	-1821.34
0.3190,0.6810	-1813.01
0.3004,0.6996	-1812.19
0.3387,0.6613	-1828.43
0.3366,0.6634	-1820.32
0.2737,0.7263	-1806.07
0.3579,0.6421	-1830.76
0.3315,0.6685	-1824.34
0.3031,0.6969	-1826.43
0.3351,0.6649	-1818.20
0.3166,0.6834	-1820.57
0.2555,0.7445	-1817.81
0.3880,0.6120	-1827.01
0.3037,0.6963	-1818.94
0.2454,0.7546	-1808.55
0.3142,0.6858	-1818.22
0.3138,0.6862	-1822.12
0.2730,0.7270	-1807.04
0.2882,0.7118	-1817.35
0.2782,0.7218	-1811.89
0.2761,0.7239	-1821.54
0.3402,0.6598	-1825.10
0.3217,0.6783	-1818.39
0.3094,0.6906	-1817.35
0.3002,0.6998	-1811.34
0.2994,0.7006	-1812.16
0.3029,0.6971	-1813.11
0.3133,0.6867	-1816.63
0.3255,0.6745	-1819.24
0.3535,0.6465	-1822.95
0.3035,0.6965	-1826.41
0.3388,0.6612	-1823.75
0.2696,0.7304	-1812.99
0.3240,0.6760	-1813.31
0.3049,0.6951	-1815.64
0.3848,0.6152	-1830.08
0.3197,0.6803	-1822.11
0.2996,0.7004	-1814.71
0.2655,0.7345	-1811.07
0.3098,0.6902	-1821.36
0.3430,0.6570	-1826.44
0.3847,0.6153	-1826.80
0.3285,0.6715	-1821.48
0.3456,0.6544	-1826.46
0.2913,0.7087	-1811.97
0.3432,0.6568	-1825.79
0.3083,0.6917	-1808.44
0.3396,0.6604	-1825.09
0.3024,0.6976	-1818.11
0.3046,0.6954	-1807.38
0.3296,0.6704	-1820.79
0.3258,0.6742	-1827.25
0.3186,0.6814	-1822.11
0.3396,0.6604	-1824.43
0.3173,0.6827	-1822.88
0.2733,0.7267	-1820.73
0.3463,0.6537	-1825.83
0.3473,0.6527	-1815.75
0.3240,0.6760	-1822.14
0.3204,0.6796	-1816.85
0.2943,0.7057	-1823.40
0.3362,0.6638	-1820.98
0.3265,0.6735	-1814.92
0.3517,0.6483	-1829.60
0.3258,0.6742	-1817.79
0.3302,0.6698	-1828.58
0.2844,0.7156	-1824.81
0.2717,0.7283	-1797.17
0.2898,0.7102	-1823.60
0.4113,0.5887	-1828.81
0.3249,0.6751	-1821.41
0.3444,0.6556	-1818.72
0.2964,0.7036	-1817.27
0.3046,0.6954	-1812.34
0.2521,0.7479	-1815.90
0.3395,0.6605	-1823.76
0.3212,0.6788	-1818.38
0.3139,0.6861	-1822.12
0.3074,0.6926	-1821.38
0.3247,0.6753	-1821.41
0.2965,0.7035	-1818.13
0.3534,0.6466	-1825.97
0.2756,0.7244	-1815.77
0.3062,0.6938	-1810.76
0.3032,0.6968	-1812.28
0.3053,0.6947	-1830.45
0.2782,0.7218	-1810.93
0.3091,0.6909	-1819.75
0.2707,0.7293	-1812.96
0.3222,0.6778	-1828.07
0.3043,0.6957	-1811.49
0.3161,0.6839	-1819.80
0.2977,0.7023	-1816.40
0.2883,0.7117	-1814.64
0.3189,0.6811	-1816.80
0.3212,0.6788	-1826.61
0.2912,0.7088	-1819.98
0.3357,0.6643	-1827.79
0.2698,0.7302	-1812.98
0.2862,0.7138	-1820.13
0.3126,0.6874	-1821.34
0.2976,0.7024	-1822.42
0.2877,0.7123	-1814.64
0.3218,0.6782	-1816.90
0.2738,0.7262	-1819.73
0.3231,0.6769	-1820.65
0.3384,0.6616	-1819.04
0.3199,0.6801	-1824.38
0.2683,0.7317	-1811.01
0.3462,0.6538	-1822.65
0.2552,0.7448	-1826.40
0.3206,0.6794	-1824.37
0.3464,0.6536	-1818.22
0.2968,0.7032	-1814.68
0.2560,0.7440	-1806.03
0.3298,0.6702	-1825.05
0.2736,0.7264	-1811.93
0.3082,0.6918	-1820.56
0.3184,0.6816	-1815.26
0.2940,0.7060	-1812.90
0.2656,0.7344	-1810.05
0.3032,0.6968	-1824.76
0.2689,0.7311	-1825.01
0.3410,0.6590	-1818.52
0.2965,0.7035	-1816.40
0.2958,0.7042	-1819.00
0.2803,0.7197	-1819.42
0.2967,0.7033	-1812.95
0.2445,0.7555	-1814.24
0.3443,0.6557	-1820.65
0.3196,0.6804	-1824.38
0.2909,0.7091	-1818.20
0.2656,0.7344	-1810.05
0.3161,0.6839	-1829.06
0.2539,0.7461	-1802.84
0.3862,0.6138	-1821.80
0.3286,0.6714	-1816.48
0.2962,0.7038	-1817.27
0.2983,0.7017	-1818.97
0.2641,0.7359	-1825.45
0.2653,0.7347	-1800.89
0.3960,0.6040	-1831.79
0.3228,0.6772	-1820.65
0.3213,0.6787	-1819.13
0.3229,0.6771	-1825.83
0.2633,0.7367	-1803.92
0.2575,0.7425	-1815.55
0.3664,0.6336	-1830.21
0.3144,0.6856	-1819.78
0.3136,0.6864	-1815.86
0.3135,0.6865	-1825.26
0.2897,0.7103	-1820.92
0.2941,0.7059	-1822.53
0.3638,0.6362	-1830.19
0.3047,0.6953	-1816.46
0.3128,0.6872	-1814.26
0.3515,0.6485	-1824.70
0.2725,0.7275	-1815.87
0.2730,0.7270	-1824.67
0.3251,0.6749	-1821.42
0.3181,0.6819	-1813.72
0.3341,0.6659	-1828.50
0.3457,0.6543	-1831.56
0.2774,0.7226	-1806.15
0.2599,0.7401	-1817.50
0.3626,0.6374	-1829.06
0.3333,0.6667	-1825.05
0.3690,0.6310	-1825.41
0.3356,0.6644	-1821.64
0.3140,0.6860	-1811.18
0.3049,0.6951	-1812.35
0.3658,0.6342	-1828.55
0.3548,0.6452	-1827.20
0.3717,0.6283	-1829.75
0.3411,0.6589	-1817.21
0.3158,0.6842	-1816.70
0.3337,0.6663	-1818.83
0.3697,0.6303	-1828.64
0.3348,0.6652	-1825.74
0.3367,0.6633	-1821.67
0.3775,0.6225	-1825.37
0.2931,0.7069	-1812.01
0.3493,0.6507	-1824.64
0.3601,0.6399	-1820.40
0.2791,0.7209	-1817.58
0.3062,0.6938	-1823.03
0.3532,0.6468	-1827.17
0.3016,0.6984	-1815.59
0.3132,0.6868	-1822.91
0.3310,0.6690	-1818.01
0.2948,0.7052	-1823.38
0.2984,0.7016	-1814.70
0.3123,0.6877	-1811.87
0.2931,0.7069	-1821.69
0.2918,0.7082	-1812.87
0.2987,0.7013	-1815.55
0.3355,0.6645	-1820.28
0.2714,0.7286	-1814.92
0.3422,0.6578	-1818.59
0.2961,0.7039	-1821.60
0.2910,0.7090	-1829.78
0.3141,0.6859	-1825.25
0.2955,0.7045	-1818.14
0.2741,0.7259	-1817.76
0.3711,0.6289	-1831.84
0.2708,0.7292	-1812.96
0.2944,0.7056	-1807.66
0.2888,0.7112	-1810.13
0.3221,0.6779	-1825.10
0.2689,0.7311	-1811.00
0.3649,0.6351	-1834.63
0.2394,0.7606	-1799.63
0.3088,0.6912	-1829.42
0.3122,0.6878	-1818.18
0.3330,0.6670	-1825.05
0.2840,0.7160	-1817.44
0.3301,0.6699	-1825.75
0.2360,0.7640	-1814.96
0.3334,0.6666	-1820.20
0.3253,0.6747	-1815.58
0.3258,0.6742	-1822.88
0.3269,0.6731	-1820.72
0.3061,0.6939	-1821.39
0.2382,0.7618	-1801.97
0.3414,0.6586	-1829.71
0.3518,0.6482	-1818.60
0.3122,0.6878	-1811.87
0.3005,0.6995	-1815.57
0.2935,0.7065	-1819.04
0.2543,0.7457	-1812.52
0.3337,0.6663	-1815.37
0.3237,0.6763	-1822.87
0.3314,0.6686	-1821.54
0.3366,0.6634	-1825.07
0.2922,0.7078	-1813.76
0.2747,0.7253	-1804.15
0.3172,0.6828	-1825.18
0.3237,0.6763	-1819.19
0.3320,0.6680	-1819.45
0.3286,0.6714	-1826.48
0.2914,0.7086	-1823.53
0.3128,0.6872	-1817.41
0.3284,0.6716	-1812.17
0.3311,0.6689	-1820.83
0.3245,0.6755	-1814.08
0.3110,0.6890	-1830.10
0.2769,0.7231	-1813.81
0.2814,0.7186	-1813.76
0.3414,0.6586	-1819.86
0.2974,0.7026	-1820.70
0.3103,0.6897	-1822.95
0.2855,0.7145	-1814.65
0.2423,0.7577	-1806.42
0.2732,0.7268	-1809.97
0.3635,0.6365	-1827.39
0.2430,0.7570	-1815.49
0.2958,0.7042	-1807.73
0.3172,0.6828	-1822.11
0.2524,0.7476	-1809.36
0.2270,0.7730	-1808.58
0.3444,0.6556	-1819.37
0.2263,0.7737	-1812.33
0.2718,0.7282	-1818.85
0.3394,0.6606	-1822.43
0.3023,0.6977	-1818.94
0.2739,0.7261	-1820.70
0.3289,0.6711	-1824.34
0.2783,0.7217	-1808.07
0.2939,0.7061	-1810.27
0.3365,0.6635	-1825.06
0.2900,0.7100	-1811.95
0.2764,0.7236	-1824.41
0.3376,0.6624	-1828.44
0.2837,0.7163	-1812.81
0.2585,0.7415	-1807.06
0.3138,0.6862	-1818.99
0.3075,0.6925	-1816.51
0.3121,0.6879	-1816.60
0.2636,0.7364	-1805.98
0.2907,0.7093	-1822.67
0.2432,0.7568	-1804.12
0.3071,0.6929	-1823.01
0.3078,0.6922	-1815.70
0.2936,0.7064	-1822.55
0.2845,0.7155	-1813.74
0.2979,0.7021	-1823.26
0.2471,0.7529	-1820.72
0.2733,0.7267	-1812.91
0.3052,0.6948	-1813.18
0.3242,0.6758	-1813.32
0.2565,0.7435	-1809.22
0.3461,0.6539	-1827.74
0.2488,0.7512	-1812.82
0.2847,0.7153	-1811.89
0.3344,0.6656	-1814.04
0.3421,0.6579	-1824.47
0.2662,0.7338	-1807.00
0.3452,0.6548	-1820.69
0.2616,0.7384	-1815.32
0.2746,0.7254	-1810.94
0.2971,0.7029	-1819.85
0.3094,0.6906	-1810.12
0.2698,0.7302	-1814.97
0.3348,0.6652	-1819.56
0.2975,0.7025	-1815.54
0.2796,0.7204	-1816.62
0.3213,0.6787	-1825.11
0.3230,0.6770	-1817.69
0.2998,0.7002	-1817.26
0.3482,0.6518	-1830.25
0.3134,0.6866	-1822.13
0.2781,0.7219	-1819.52
0.3156,0.6844	-1814.38
0.2897,0.7103	-1816.43
0.3283,0.6717	-1824.33
0.2660,0.7340	-1808.01
0.2865,0.7135	-1818.29
0.2494,0.7506	-1816.09
0.3158,0.6842	-1830.62
0.3097,0.6903	-1821.36
0.3183,0.6817	-1818.30
0.2793,0.7207	-1810.93
0.2851,0.7149	-1806.38
0.2428,0.7572	-1820.06
0.3200,0.6800	-1829.65
0.3199,0.6801	-1826.64
0.2858,0.7142	-1810.99
0.3137,0.6863	-1817.43
0.2841,0.7159	-1823.90
0.2481,0.7519	-1816.19
0.2870,0.7130	-1822.83
0.3043,0.6957	-1816.46
0.2984,0.7016	-1820.68
0.3273,0.6727	-1825.06
0.3198,0.6802	-1816.83
0.2844,0.7156	-1818.35
0.2749,0.7251	-1816.76
0.3634,0.6366	-1830.19
0.3167,0.6833	-1818.27
0.2943,0.7057	-1819.03
0.3300,0.6700	-1822.21
0.2695,0.7305	-1807.01
0.2934,0.7066	-1822.56
0.3591,0.6409	-1825.54
0.2990,0.7010	-1817.26
0.2604,0.7396	-1814.34
0.3014,0.6986	-1829.88
0.2359,0.7641	-1803.22
0.2809,0.7191	-1827.86
0.3402,0.6598	-1819.14
0.3236,0.6764	-1822.87
0.2947,0.7053	-1819.02
0.3000,0.7000	-1816.42
0.2475,0.7525	-1808.45
0.2320,0.7680	-1814.18
0.3670,0.6330	-1826.40
0.3335,0.6665	-1811.89
0.3503,0.6497	-1820.34
0.2776,0.7224	-1809.98
0.2829,0.7171	-1810.95
0.2365,0.7635	-1805.54
0.3101,0.6899	-1822.95
0.3341,0.6659	-1827.81
0.3220,0.6780	-1826.59
0.2715,0.7285	-1818.87
0.2949,0.7051	-1820.76
0.2527,0.7473	-1805.01
0.3307,0.6693	-1821.52
0.3255,0.6745	-1827.98
0.3193,0.6807	-1822.87
0.3027,0.6973	-1813.93
0.3220,0.6780	-1812.44
0.2811,0.7189	-1817.51
0.3236,0.6764	-1816.97
0.3296,0.6704	-1821.50
0.3463,0.6537	-1824.56
0.3477,0.6523	-1825.22
0.3255,0.6745	-1820.69
0.3082,0.6918	-1823.79
0.3160,0.6840	-1821.34
0.3126,0.6874	-1818.98
0.3249,0.6751	-1828.00
0.3123,0.6877	-1818.19
0.2999,0.7001	-1815.57
0.3512,0.6488	-1824.69
0.3640,0.6360	-1826.29
0.2529,0.7471	-1813.67
0.2862,0.7138	-1813.73
0.3555,0.6445	-1820.07
0.2888,0.7112	-1806.53
0.3417,0.6583	-1830.37
0.3253,0.6747	-1822.15
0.2898,0.7102	-1815.53
0.3238,0.6762	-1818.45
0.3497,0.6503	-1827.13
0.2929,0.7071	-1812.00
0.2887,0.7113	-1823.65
0.3018,0.6982	-1814.75
0.3397,0.6603	-1821.77
0.3157,0.6843	-1825.21
0.3130,0.6870	-1820.56
0.2530,0.7470	-1799.59
0.3162,0.6838	-1822.88
0.3506,0.6494	-1820.36
0.3502,0.6498	-1824.05
0.3041,0.6959	-1809.00
0.3301,0.6699	-1823.63
0.2561,0.7439	-1799.63
0.3092,0.6908	-1807.69
0.3255,0.6745	-1822.88
0.3149,0.6851	-1822.12
0.2698,0.7302	-1818.96
0.3241,0.6759	-1814.79
0.3118,0.6882	-1809.47
0.3025,0.6975	-1819.78
0.3209,0.6791	-1825.12
0.3233,0.6767	-1820.66
0.2755,0.7245	-1816.74
0.3202,0.6798	-1821.36
0.2807,0.7193	-1819.41
0.3001,0.6999	-1818.11
0.2997,0.7003	-1824.05
0.3377,0.6623	-1827.77
0.3139,0.6861	-1819.78
0.3430,0.6570	-1832.29
0.2885,0.7115	-1820.96
0.3094,0.6906	-1816.54
0.3266,0.6734	-1824.34
0.3118,0.6882	-1823.72
0.3106,0.6894	-1825.34
0.3778,0.6222	-1828.38
0.3392,0.6608	-1822.42
0.3030,0.6970	-1821.44
0.3179,0.6821	-1825.16
0.3366,0.6634	-1820.99
0.3045,0.6955	-1817.29
0.3796,0.6204	-1828.94
0.3303,0.6697	-1819.39
0.2713,0.7287	-1824.80
0.2971,0.7029	-1816.40
0.3750,0.6250	-1825.22
0.2943,0.7057	-1818.15
0.3819,0.6181	-1828.07
0.3343,0.6657	-1828.50
0.2796,0.7204	-1809.04
0.2868,0.7132	-1808.27
0.3985,0.6015	-1829.81
0.3271,0.6729	-1817.12
0.3471,0.6529	-1821.42
0.3511,0.6489	-1827.76
0.2814,0.7186	-1810.01
0.2870,0.7130	-1813.73
0.3706,0.6294	-1830.25
0.2950,0.7050	-1819.89
0.3061,0.6939	-1811.57
0.3648,0.6352	-1824.65
0.2614,0.7386	-1814.29
0.3003,0.6997	-1823.18
0.3149,0.6851	-1818.23
0.2903,0.7097	-1809.27
0.3397,0.6603	-1819.11
0.3478,0.6522	-1824.60
0.2367,0.7633	-1810.22
0.2907,0.7093	-1811.96
0.2893,0.7107	-1821.83
0.2992,0.7008	-1822.37
0.3532,0.6468	-1823.54
0.3431,0.6569	-1816.69
0.2572,0.7428	-1829.35
0.2738,0.7262	-1809.00
0.2877,0.7123	-1823.70
0.3148,0.6852	-1822.90
0.2882,0.7118	-1834.52
0.3307,0.6693	-1822.93
0.2571,0.7429	-1810.26
0.2557,0.7443	-1810.31
0.2811,0.7189	-1814.70
0.3074,0.6926	-1824.63
0.2782,0.7218	-1820.47
0.3391,0.6609	-1819.08
0.2466,0.7534	-1809.61
0.2728,0.7272	-1817.82
0.2909,0.7091	-1811.97
0.3117,0.6883	-1816.59
0.2340,0.7660	-1828.20
0.2976,0.7024	-1824.99
0.2777,0.7223	-1807.11
0.2495,0.7505	-1802.87
0.3274,0.6726	-1816.42
0.3353,0.6647	-1823.69
0.2316,0.7684	-1810.62
0.3128,0.6872	-1810.32
0.3106,0.6894	-1814.97
0.2774,0.7226	-1809.02
0.3254,0.6746	-1816.32
0.3441,0.6559	-1821.28
0.2417,0.7583	-1792.73
0.2780,0.7220	-1810.93
0.3481,0.6519	-1823.98
0.3264,0.6736	-1817.09
0.2626,0.7374	-1813.21
0.3386,0.6614	-1824.41
0.2386,0.7614	-1801.96
0.2945,0.7055	-1819.02
0.3674,0.6326	-1830.76
0.3130,0.6870	-1821.34
0.2875,0.7125	-1818.27
0.3105,0.6895	-1821.35
0.2203,0.7797	-1800.36
0.2952,0.7048	-1819.01
0.3677,0.6323	-1824.26
0.2843,0.7157	-1810.04
0.2811,0.7189	-1815.64
0.2869,0.7131	-1814.64
0.2395,0.7605	-1814.64
0.3396,0.6604	-1821.77
0.4030,0.5970	-1829.29
0.2563,0.7437	-1807.09
0.2449,0.7551	-1811.95
0.3122,0.6878	-1815.03
0.3239,0.6761	-1822.14
0.3065,0.6935	-1818.12
0.4075,0.5925	-1831.10
0.2815,0.7185	-1818.44
0.2321,0.7679	-1817.75
0.2872,0.7128	-1821.01
0.3378,0.6622	-1821.71
0.3449,0.6551	-1829.02
0.4107,0.5893	-1831.29
0.3084,0.6916	-1818.14
0.2553,0.7447	-1804.97
0.2952,0.7048	-1821.62
0.3028,0.6972	-1813.94
0.3523,0.6477	-1819.85
0.3865,0.6135	-1835.69
0.2747,0.7253	-1813.86
0.2637,0.7363	-1816.25
0.2992,0.7008	-1813.01
0.3485,0.6515	-1824.61
0.3238,0.6762	-1815.51
0.4063,0.5937	-1827.24
0.2647,0.7353	-1799.85
0.3058,0.6942	-1822.22
0.3022,0.6978	-1813.92
0.3345,0.6655	-1820.93
0.3762,0.6238	-1823.26
0.3707,0.6293	-1832.90
0.2450,0.7550	-1814.19
0.2911,0.7089	-1812.86
0.3497,0.6503	-1825.27
0.3180,0.6820	-1816.01
0.2954,0.7046	-1821.62
0.3342,0.6658	-1824.36
0.2552,0.7448	-1819.97
0.2894,0.7106	-1824.52
0.3400,0.6600	-1826.42
0.3834,0.6166	-1828.14
0.2636,0.7364	-1805.98
0.3514,0.6486	-1826.54
0.2711,0.7289	-1808.01
0.2966,0.7034	-1825.03
0.3294,0.6706	-1825.05
0.3921,0.6079	-1827.73
0.2967,0.7033	-1816.40
0.3880,0.6120	-1826.55
0.2972,0.7028	-1818.12
0.2688,0.7312	-1820.01
0.3193,0.6807	-1811.52
0.3944,0.6056	-1829.59
0.2555,0.7445	-1813.53
0.3978,0.6022	-1834.34
0.3215,0.6785	-1819.88
0.3008,0.6992	-1816.42
0.3573,0.6427	-1827.24
0.3485,0.6515	-1827.74
0.2954,0.7046	-1815.53
0.3608,0.6392	-1829.04
0.3229,0.6771	-1819.91
0.3217,0.6783	-1825.11
0.2985,0.7015	-1816.41
0.3117,0.6883	-1820.55
0.2769,0.7231	-1818.61
0.3471,0.6529	-1827.74
0.3054,0.6946	-1819.76
0.2770,0.7230	-1807.10
0.2946,0.7054	-1812.91
0.2962,0.7038	-1811.21
0.3277,0.6723	-1817.15
0.3102,0.6898	-1818.96
0.3026,0.6974	-1819.78
0.2898,0.7102	-1809.26
0.2643,0.7357	-1798.81
0.3044,0.6956	-1820.59
0.3602,0.6398	-1827.31
0.2814,0.7186	-1823.13
0.2735,0.7265	-1814.86
0.2789,0.7211	-1809.03
0.2957,0.7043	-1814.67
0.3045,0.6955	-1816.46
0.3648,0.6352	-1828.53
0.3252,0.6748	-1819.23
0.2632,0.7368	-1818.33
0.2590,0.7410	-1815.46
0.3431,0.6569	-1830.33
0.2776,0.7224	-1812.85
0.3247,0.6753	-1822.88
0.3091,0.6909	-1826.19
0.2523,0.7477	-1806.10
0.2699,0.7301	-1811.98
0.2670,0.7330	-1824.17
0.3414,0.6586	-1819.20
0.3439,0.6561	-1831.61
0.2865,0.7135	-1830.16
0.2866,0.7134	-1818.29
0.2853,0.7147	-1813.73
0.2724,0.7276	-1807.03
0.2860,0.7140	-1817.39
0.3470,0.6530	-1819.52
0.2462,0.7538	-1805.16
0.2520,0.7480	-1807.19
0.2803,0.7197	-1819.43
0.2708,0.7292	-1819.89
0.3014,0.6986	-1824.83
0.2942,0.7058	-1815.53
0.2723,0.7277	-1815.87
0.2834,0.7166	-1816.53
0.2900,0.7100	-1821.80
0.2761,0.7239	-1813.83
0.3201,0.6799	-1820.61
0.3353,0.6647	-1818.21
0.2561,0.7439	-1814.56
0.2970,0.7030	-1825.02
0.3247,0.6753	-1824.34
0.2745,0.7255	-1817.75
0.2994,0.7006	-1818.96
0.3505,0.6495	-1821.59
0.2666,0.7334	-1819.14
0.3824,0.6176	-1829.05
0.3001,0.6999	-1812.18
0.2979,0.7021	-1821.55
0.2929,0.7071	-1819.05
0.3698,0.6302	-1829.71
0.2968,0.7032	-1813.81
0.3818,0.6182	-1828.06
0.2825,0.7175	-1823.07
0.3006,0.6994	-1812.20
0.3095,0.6905	-1814.94
0.3673,0.6327	-1824.23
0.2718,0.7282	-1814.91
0.4023,0.5977	-1832.80
0.2835,0.7165	-1813.74
0.3015,0.6985	-1817.27
0.3239,0.6761	-1824.34
0.3833,0.6167	-1827.19
0.2885,0.7115	-1818.25
0.3108,0.6892	-1818.16
0.2676,0.7324	-1821.10
0.3099,0.6901	-1822.16
0.2632,0.7368	-1813.18
0.3189,0.6811	-1824.39
0.2913,0.7087	-1815.53
0.3135,0.6865	-1822.12
0.2749,0.7251	-1809.97
0.3142,0.6858	-1819.00
0.2583,0.7417	-1813.39
0.2343,0.7657	-1818.68
0.2749,0.7251	-1807.06
0.2849,0.7151	-1818.34
0.2627,0.7373	-1816.30
0.3903,0.6097	-1830.28
0.2759,0.7241	-1808.04
0.2571,0.7429	-1814.51
0.2765,0.7235	-1819.59
0.3018,0.6982	-1809.72
0.3283,0.6717	-1823.62
0.3485,0.6515	-1830.25
0.2487,0.7513	-1801.77
0.2381,0.7619	-1798.48
0.3037,0.6963	-1813.13
0.3274,0.6726	-1829.37
0.3471,0.6529	-1824.58
0.3569,0.6431	-1830.77
0.2192,0.7808	-1801.71
0.2755,0.7245	-1813.84
0.2894,0.7106	-1821.82
0.3615,0.6385	-1825.63
0.3252,0.6748	-1819.23
0.3440,0.6560	-1823.22
0.2579,0.7421	-1819.75
0.2918,0.7082	-1811.09
0.3250,0.6750	-1822.15
0.3054,0.6946	-1816.47
0.3145,0.6855	-1822.90
0.3601,0.6399	-1827.88
0.2840,0.7160	-1810.96
0.2952,0.7048	-1819.01
0.3491,0.6509	-1820.27
0.3256,0.6744	-1818.51
0.2986,0.7014	-1812.14
0.2985,0.7015	-1816.41
0.3176,0.6824	-1826.70
0.2914,0.7086	-1811.09
0.3269,0.6731	-1825.78
0.2931,0.7069	-1823.45
0.3156,0.6844	-1824.44
0.2588,0.7412	-1819.68
0.2922,0.7078	-1816.41
0.3199,0.6801	-1822.87
0.3415,0.6585	-1822.49
0.3021,0.6979	-1824.81
0.3147,0.6853	-1823.67
0.2684,0.7316	-1816.03
0.3311,0.6689	-1829.26
0.3266,0.6734	-1819.99
0.3410,0.6590	-1824.45
0.2630,0.7370	-1818.34
0.2962,0.7038	-1823.33
0.2511,0.7489	-1800.67
0.3150,0.6850	-1819.79
0.3267,0.6733	-1817.10
0.3074,0.6926	-1819.75
0.3102,0.6898	-1821.35
0.3618,0.6382	-1823.37
0.2480,0.7520	-1816.20
0.3083,0.6917	-1818.14
0.3395,0.6605	-1823.76
0.2850,0.7150	-1824.77
0.3041,0.6959	-1816.46
0.3672,0.6328	-1825.32
0.2566,0.7434	-1798.58
0.3388,0.6612	-1825.08
0.3571,0.6429	-1832.53
0.3151,0.6849	-1819.79
0.2996,0.7004	-1808.77
0.3589,0.6411	-1823.79
0.2525,0.7475	-1791.99
0.3867,0.6133	-1827.39
0.3603,0.6397	-1820.42
0.2957,0.7043	-1824.21
0.2825,0.7175	-1812.82
0.3638,0.6362	-1828.51
0.2686,0.7314	-1825.03
0.3497,0.6503	-1823.41
0.3431,0.6569	-1828.39
0.3102,0.6898	-1813.36
0.2761,0.7239	-1803.22
0.3723,0.6277	-1828.71
0.3030,0.6970	-1829.77
0.3861,0.6139	-1831.52
0.3223,0.6777	-1822.87
0.2741,0.7259	-1809.00
0.2987,0.7013	-1813.85
0.3624,0.6376	-1825.66
0.3085,0.6915	-1816.53
0.3931,0.6069	-1828.23
0.2805,0.7195	-1817.53
0.3102,0.6898	-1814.96
0.3199,0.6801	-1817.59
0.3777,0.6223	-1825.38
0.3182,0.6818	-1817.54
0.3833,0.6167	-1831.46
0.2505,0.7495	-1810.53
0.3189,0.6811	-1824.39
0.2604,0.7396	-1809.12
0.3430,0.6570	-1821.24
0.2659,0.7341	-1819.19
0.3425,0.6575	-1826.43
0.2331,0.7669	-1796.20
0.3189,0.6811	-1816.04
0.2971,0.7029	-1818.12
0.3364,0.6636	-1827.78
0.2605,0.7395	-1813.29
0.3526,0.6474	-1832.03
0.2597,0.7403	-1811.23
0.3314,0.6686	-1820.13
0.2796,0.7204	-1818.51
0.3188,0.6812	-1819.07
0.2781,0.7219	-1815.70
0.3274,0.6726	-1818.58
0.2471,0.7529	-1811.82
0.3070,0.6930	-1815.68
0.2749,0.7251	-1805.12
0.2823,0.7177	-1811.88
0.2774,0.7226	-1814.76
0.3230,0.6770	-1822.13
0.2487,0.7513	-1811.72
0.3060,0.6940	-1813.21
0.2624,0.7376	-1819.41
0.2865,0.7135	-1817.38
0.3174,0.6826	-1819.05
0.3754,0.6246	-1831.35
0.3163,0.6837	-1815.95
0.2554,0.7446	-1804.97
0.2599,0.7401	-1800.76
0.3071,0.6929	-1816.50
0.3140,0.6860	-1824.47
0.3147,0.6853	-1817.45
0.3138,0.6862	-1818.21
0.2537,0.7463	-1808.23
0.2700,0.7300	-1807.01
0.3112,0.6888	-1832.47
0.3325,0.6675	-1820.17
0.3141,0.6859	-1820.56
0.3364,0.6636	-1827.78
0.2762,0.7238	-1815.75
0.2866,0.7134	-1822.85
0.3240,0.6760	-1822.14
0.3477,0.6523	-1825.22
0.3421,0.6579	-1827.09
0.3284,0.6716	-1828.63
0.2818,0.7182	-1820.30
0.2512,0.7488	-1813.77
0.3632,0.6368	-1827.94
0.3550,0.6450	-1827.80
0.3327,0.6673	-1820.87
0.2859,0.7141	-1816.48
0.2929,0.7071	-1822.58
0.2397,0.7603	-1792.69
0.3565,0.6435	-1828.41
0.3301,0.6699	-1820.09
0.2713,0.7287	-1809.98
0.3230,0.6770	-1819.91
0.3002,0.6998	-1813.03
0.2055,0.7945	-1815.10
0.3354,0.6646	-1818.90
0.3230,0.6770	-1816.21
0.2911,0.7089	-1810.19
0.3209,0.6791	-1828.11
0.3438,0.6562	-1829.03
0.2284,0.7716	-1814.56
0.3320,0.6680	-1817.36
0.3000,0.7000	-1819.80
0.3824,0.6176	-1828.57
0.3189,0.6811	-1825.15
0.3055,0.6945	-1823.04
0.2493,0.7507	-1808.38
0.3008,0.6992	-1827.39
0.2709,0.7291	-1810.98
0.3717,0.6283	-1822.92
0.3272,0.6728	-1820.01
0.2845,0.7155	-1818.35
0.2462,0.7538	-1820.82
0.2991,0.7009	-1818.96
0.2625,0.7375	-1816.31
0.3558,0.6442	-1825.43
0.3258,0.6742	-1815.61
0.2826,0.7174	-1805.36
0.2534,0.7466	-1815.81
0.3543,0.6457	-1824.79
0.2646,0.7354	-1821.31
0.3698,0.6302	-1829.18
0.3262,0.6738	-1827.24
0.2646,0.7354	-1809.05
0.2921,0.7079	-1819.95
0.3238,0.6762	-1829.50
0.3178,0.6822	-1819.82
0.3361,0.6639	-1825.74
0.3068,0.6932	-1812.42
0.2759,0.7241	-1823.48
0.3055,0.6945	-1819.76
0.3140,0.6860	-1815.09
0.3508,0.6492	-1829.60
0.3365,0.6635	-1820.99
0.3442,0.6558	-1826.45
0.3055,0.6945	-1807.44
0.3305,0.6695	-1818.69
0.2736,0.7264	-1818.76
0.3305,0.6695	-1817.28
0.2887,0.7113	-1821.85
0.3391,0.6609	-1828.42
