#isoforms=['ENSG00000101294.SE.1.A.up_ENSG00000101294.SE.1.A.SE1_ENSG00000101294.SE.1.A.dn','ENSG00000101294.SE.1.B.up_ENSG00000101294.SE.1.B.dn']	exon_lens=('ENSG00000101294.SE.1.A.up',99),('ENSG00000101294.SE.1.A.SE1',376),('ENSG00000101294.SE.1.A.dn',89),('ENSG00000101294.SE.1.B.up',99),('ENSG00000101294.SE.1.B.dn',89)	iters=5000	burn_in=500	lag=10	percent_accept=84.20	proposal_type=drift	counts=(0,0):460,(1,0):202,(1,1):254	assigned_counts=0:287,1:169	chrom=chr20	strand=+	mRNA_starts=31527484,31527484	mRNA_ends=31545035,31545035
sampled_psi	log_score
0.2740,0.7260	-2942.63
0.2984,0.7016	-2950.81
0.3269,0.6731	-2951.28
0.3171,0.6829	-2960.69
0.3410,0.6590	-2957.28
0.3483,0.6517	-2952.18
0.2955,0.7045	-2936.25
0.3274,0.6726	-2941.92
0.3548,0.6452	-2956.01
0.3616,0.6384	-2955.59
0.3339,0.6661	-2945.05
0.3285,0.6715	-2945.55
0.2987,0.7013	-2949.08
0.3440,0.6560	-2949.48
0.3530,0.6470	-2946.29
0.3651,0.6349	-2960.15
0.3212,0.6788	-2944.64
0.3316,0.6684	-2947.75
0.3239,0.6761	-2942.49
0.3318,0.6682	-2948.46
0.3929,0.6071	-2961.45
0.3616,0.6384	-2955.03
0.3514,0.6486	-2958.41
0.3245,0.6755	-2941.78
0.3364,0.6636	-2945.17
0.3043,0.6957	-2947.14
0.3483,0.6517	-2960.95
0.3673,0.6327	-2952.01
0.3299,0.6701	-2948.42
0.3215,0.6785	-2957.34
0.3160,0.6840	-2946.89
0.2995,0.7005	-2938.84
0.3328,0.6672	-2949.17
0.3448,0.6552	-2950.80
0.3628,0.6372	-2950.01
0.3509,0.6491	-2949.19
0.3072,0.6928	-2942.98
0.3475,0.6525	-2960.35
0.3160,0.6840	-2935.30
0.3267,0.6733	-2957.79
0.3585,0.6415	-2950.85
0.3291,0.6709	-2939.86
0.3097,0.6903	-2952.59
0.3465,0.6535	-2948.95
0.3328,0.6672	-2954.04
0.3125,0.6875	-2946.14
0.3510,0.6490	-2962.72
0.3084,0.6916	-2940.55
0.3428,0.6572	-2952.04
0.3482,0.6518	-2949.67
0.2738,0.7262	-2936.79
0.3125,0.6875	-2933.53
0.3168,0.6832	-2944.58
0.3245,0.6755	-2952.04
0.3574,0.6426	-2959.58
0.3100,0.6900	-2946.98
0.3068,0.6932	-2951.13
0.3142,0.6858	-2941.44
0.3467,0.6533	-2959.10
0.3436,0.6564	-2954.65
0.3616,0.6384	-2941.96
0.3272,0.6728	-2947.67
0.2941,0.7059	-2936.25
0.2803,0.7197	-2936.49
0.3355,0.6645	-2954.01
0.3487,0.6513	-2959.69
0.3567,0.6433	-2957.22
0.3284,0.6716	-2944.83
0.2903,0.7097	-2947.89
0.3174,0.6826	-2943.82
0.3156,0.6844	-2951.54
0.4132,0.5868	-2964.57
0.3139,0.6861	-2947.69
0.3741,0.6259	-2965.94
0.3041,0.6959	-2946.32
0.2836,0.7164	-2949.36
0.3194,0.6806	-2943.85
0.4191,0.5809	-2966.61
0.3110,0.6890	-2941.39
0.3872,0.6128	-2961.19
0.3266,0.6734	-2954.90
0.2657,0.7343	-2936.32
0.3269,0.6731	-2944.78
0.3551,0.6449	-2956.61
0.3543,0.6457	-2953.60
0.3414,0.6586	-2956.62
0.3400,0.6600	-2940.06
0.2809,0.7191	-2943.99
0.3409,0.6591	-2948.05
0.3336,0.6664	-2958.18
0.3472,0.6528	-2950.25
0.3289,0.6711	-2951.98
0.3150,0.6850	-2953.11
0.3090,0.6910	-2954.24
0.3068,0.6932	-2951.94
0.3653,0.6347	-2958.50
0.3046,0.6954	-2938.05
0.3353,0.6647	-2954.69
0.3174,0.6826	-2953.77
0.2767,0.7233	-2948.17
0.3279,0.6721	-2958.44
0.3218,0.6782	-2954.34
0.3226,0.6774	-2946.89
0.3064,0.6936	-2951.97
0.3042,0.6958	-2932.25
0.2869,0.7131	-2945.41
0.3053,0.6947	-2941.35
0.3125,0.6875	-2948.51
0.3099,0.6901	-2953.38
0.2980,0.7020	-2948.27
0.2491,0.7509	-2941.32
0.2943,0.7057	-2948.50
0.3112,0.6888	-2939.80
0.3637,0.6363	-2951.76
0.3370,0.6630	-2950.61
0.2594,0.7406	-2928.46
0.2838,0.7162	-2936.38
0.2987,0.7013	-2943.96
0.3606,0.6394	-2953.27
0.3629,0.6371	-2959.58
0.3548,0.6452	-2951.82
0.2818,0.7182	-2936.44
0.2805,0.7195	-2933.66
0.2851,0.7149	-2939.11
0.3199,0.6801	-2947.63
0.3719,0.6281	-2956.57
0.3457,0.6543	-2952.11
0.2836,0.7164	-2948.43
0.2627,0.7373	-2927.27
0.2874,0.7126	-2938.12
0.2755,0.7245	-2928.96
0.3336,0.6664	-2945.03
0.3666,0.6334	-2957.98
0.3101,0.6899	-2942.98
0.2950,0.7050	-2941.48
0.3222,0.6778	-2941.68
0.2987,0.7013	-2937.13
0.3299,0.6701	-2954.09
0.3681,0.6319	-2959.64
0.2878,0.7122	-2930.86
0.2640,0.7360	-2941.57
0.3245,0.6755	-2953.51
0.3208,0.6792	-2949.88
0.3402,0.6598	-2954.65
0.3727,0.6273	-2960.77
0.2917,0.7083	-2945.13
0.2720,0.7280	-2954.61
0.3111,0.6889	-2940.59
0.3271,0.6729	-2950.56
0.3416,0.6584	-2967.11
0.3803,0.6197	-2961.43
0.2866,0.7134	-2943.62
0.3077,0.6923	-2940.54
0.3044,0.6956	-2944.65
0.2830,0.7170	-2949.42
0.3524,0.6476	-2955.97
0.3604,0.6396	-2956.70
0.3225,0.6775	-2947.63
0.3018,0.6982	-2939.69
0.2881,0.7119	-2939.01
0.2905,0.7095	-2950.55
0.3468,0.6532	-2947.71
0.3501,0.6499	-2957.19
0.3544,0.6456	-2950.00
0.3899,0.6101	-2960.41
0.3107,0.6893	-2938.19
0.2797,0.7203	-2929.89
0.3534,0.6466	-2953.57
0.3260,0.6740	-2946.20
0.3750,0.6250	-2963.37
0.3969,0.6031	-2961.67
0.3448,0.6552	-2955.30
0.2889,0.7111	-2940.78
0.3891,0.6109	-2959.47
0.3213,0.6787	-2951.37
0.3776,0.6224	-2954.88
0.3422,0.6578	-2964.45
0.3368,0.6632	-2958.06
0.2923,0.7077	-2931.83
0.3442,0.6558	-2963.03
0.2995,0.7005	-2939.69
0.3372,0.6628	-2952.64
0.3081,0.6919	-2958.35
0.3232,0.6768	-2939.51
0.3360,0.6640	-2955.37
0.3348,0.6652	-2951.95
0.2852,0.7148	-2929.92
0.3049,0.6951	-2940.52
0.3065,0.6935	-2951.15
0.3650,0.6350	-2960.15
0.3325,0.6675	-2955.44
0.4004,0.5996	-2959.86
0.3091,0.6909	-2944.58
0.3347,0.6653	-2956.76
0.3332,0.6668	-2951.26
0.3748,0.6252	-2959.28
0.3247,0.6753	-2952.04
0.3970,0.6030	-2958.33
0.2807,0.7193	-2953.41
0.3265,0.6735	-2947.66
0.3443,0.6557	-2951.43
0.3331,0.6669	-2957.51
0.3482,0.6518	-2948.42
0.3726,0.6274	-2961.81
0.2813,0.7187	-2933.64
0.2844,0.7156	-2949.28
0.3150,0.6850	-2946.90
0.3384,0.6616	-2941.92
0.3442,0.6558	-2948.85
0.3909,0.6091	-2958.69
0.2746,0.7254	-2946.46
0.2944,0.7056	-2946.74
0.3038,0.6962	-2935.55
0.3332,0.6668	-2951.26
0.3507,0.6493	-2955.34
0.3723,0.6277	-2957.63
0.2947,0.7053	-2939.74
0.3360,0.6640	-2947.87
0.2883,0.7117	-2957.07
0.3233,0.6767	-2947.64
0.3038,0.6962	-2941.35
0.3565,0.6435	-2958.99
0.3203,0.6797	-2952.90
0.3148,0.6852	-2936.79
0.3132,0.6868	-2944.56
0.3182,0.6818	-2942.31
0.3539,0.6461	-2962.01
0.2936,0.7064	-2946.79
0.3316,0.6684	-2934.44
0.3164,0.6836	-2951.51
0.3276,0.6724	-2948.40
0.3325,0.6675	-2947.08
0.3473,0.6527	-2955.94
0.2838,0.7162	-2928.05
0.3345,0.6655	-2942.33
0.3294,0.6706	-2949.84
0.3375,0.6625	-2951.30
0.3109,0.6891	-2942.18
0.3149,0.6851	-2952.34
0.3116,0.6884	-2936.64
0.3381,0.6619	-2954.66
0.3141,0.6859	-2945.35
0.3267,0.6733	-2948.39
0.3479,0.6521	-2957.19
0.3161,0.6839	-2938.40
0.3132,0.6868	-2953.20
0.3694,0.6306	-2957.52
0.3283,0.6717	-2947.69
0.3217,0.6783	-2945.39
0.3660,0.6340	-2948.07
0.3331,0.6669	-2950.57
0.3326,0.6674	-2952.65
0.3535,0.6465	-2951.15
0.3078,0.6922	-2951.08
0.3451,0.6549	-2954.02
0.3362,0.6638	-2945.16
0.3275,0.6725	-2952.71
0.3682,0.6318	-2959.64
0.3996,0.6004	-2962.65
0.3630,0.6370	-2954.52
0.3418,0.6582	-2950.71
0.3596,0.6404	-2966.49
0.3307,0.6693	-2939.27
0.3089,0.6911	-2941.36
0.3633,0.6367	-2960.14
0.3413,0.6587	-2955.30
0.3040,0.6960	-2945.49
0.3126,0.6874	-2946.14
0.3694,0.6306	-2956.99
0.2745,0.7255	-2937.72
0.3244,0.6756	-2946.91
0.3230,0.6770	-2943.94
0.3094,0.6906	-2945.38
0.3427,0.6573	-2955.30
0.3932,0.6068	-2958.87
0.2828,0.7172	-2941.99
0.3349,0.6651	-2947.15
0.3685,0.6315	-2948.88
0.3440,0.6560	-2955.30
0.3198,0.6802	-2946.12
0.3941,0.6059	-2962.81
0.3303,0.6697	-2947.72
0.3714,0.6286	-2953.91
0.3102,0.6898	-2948.57
0.2946,0.7054	-2946.73
0.3036,0.6964	-2938.86
0.3712,0.6288	-2964.97
0.3105,0.6895	-2950.16
0.3222,0.6778	-2949.86
0.3375,0.6625	-2947.25
0.3401,0.6599	-2950.67
0.3127,0.6873	-2950.08
0.3658,0.6342	-2955.75
0.2964,0.7036	-2949.23
0.3084,0.6916	-2947.82
0.3389,0.6611	-2946.64
0.3691,0.6309	-2956.97
0.2978,0.7022	-2933.70
0.3632,0.6368	-2960.71
0.3208,0.6792	-2949.13
0.3206,0.6794	-2943.88
0.3342,0.6658	-2954.71
0.4161,0.5839	-2964.09
0.3312,0.6688	-2940.71
0.3253,0.6747	-2952.03
0.3017,0.6983	-2933.81
0.2973,0.7027	-2940.57
0.2971,0.7029	-2938.85
0.3652,0.6348	-2954.63
0.3327,0.6673	-2947.78
0.3152,0.6848	-2956.99
0.2897,0.7103	-2938.96
0.2900,0.7100	-2947.01
0.3023,0.6977	-2954.74
0.3490,0.6510	-2950.33
0.3398,0.6602	-2944.69
0.2968,0.7032	-2944.02
0.3127,0.6873	-2950.86
0.3046,0.6954	-2943.82
0.2960,0.7040	-2944.05
0.3122,0.6878	-2935.09
0.3161,0.6839	-2963.10
0.3089,0.6911	-2939.75
0.3122,0.6878	-2946.14
0.3017,0.6983	-2942.20
0.2898,0.7102	-2945.23
0.3062,0.6938	-2938.90
0.2974,0.7026	-2945.72
0.2903,0.7097	-2940.74
0.2804,0.7196	-2938.37
0.3358,0.6642	-2947.87
0.2869,0.7131	-2935.40
0.3012,0.6988	-2942.21
0.3132,0.6868	-2928.86
0.2925,0.7075	-2946.85
0.3148,0.6852	-2950.79
0.3215,0.6785	-2949.87
0.3030,0.6970	-2942.19
0.3819,0.6181	-2957.63
0.3271,0.6729	-2949.11
0.3514,0.6486	-2953.51
0.3206,0.6794	-2941.62
0.3358,0.6642	-2951.96
0.3665,0.6335	-2961.26
0.3644,0.6356	-2956.81
0.2979,0.7021	-2938.84
0.3443,0.6557	-2955.30
0.3501,0.6499	-2962.75
0.3388,0.6612	-2947.30
0.3747,0.6253	-2953.64
0.3047,0.6953	-2948.77
0.3491,0.6509	-2945.98
0.3742,0.6258	-2960.80
0.3514,0.6486	-2963.32
0.3434,0.6566	-2941.69
0.3474,0.6526	-2959.72
0.3177,0.6823	-2941.53
0.3334,0.6666	-2949.18
0.3714,0.6286	-2958.65
0.3226,0.6774	-2943.18
0.3380,0.6620	-2947.27
0.3269,0.6731	-2956.33
0.3436,0.6564	-2951.41
0.3457,0.6543	-2953.38
0.3377,0.6623	-2950.62
0.3222,0.6778	-2948.38
0.3131,0.6869	-2948.49
0.3420,0.6580	-2955.30
0.3245,0.6755	-2946.18
0.3389,0.6611	-2965.35
0.3775,0.6225	-2963.87
0.3641,0.6359	-2953.46
0.3007,0.6993	-2938.84
0.3866,0.6134	-2960.24
0.3035,0.6965	-2940.52
0.3284,0.6716	-2960.57
0.3561,0.6439	-2950.10
0.3556,0.6444	-2961.96
0.3034,0.6966	-2944.68
0.3705,0.6295	-2960.21
0.3316,0.6684	-2943.55
0.3019,0.6981	-2943.88
0.3113,0.6887	-2944.57
0.3479,0.6521	-2949.03
0.2745,0.7255	-2939.67
0.3284,0.6716	-2958.42
0.3462,0.6538	-2955.94
0.3372,0.6628	-2947.91
0.3189,0.6811	-2952.95
0.3322,0.6678	-2946.37
0.2949,0.7051	-2949.33
0.3295,0.6705	-2956.23
0.3107,0.6893	-2948.55
0.2930,0.7070	-2940.65
0.3389,0.6611	-2949.98
0.3059,0.6941	-2938.07
0.3033,0.6967	-2948.00
0.3400,0.6600	-2959.96
0.3152,0.6848	-2944.57
0.3125,0.6875	-2953.23
0.3564,0.6436	-2956.04
0.3061,0.6939	-2947.90
0.2872,0.7128	-2956.30
0.3733,0.6267	-2956.64
0.2711,0.7289	-2942.89
0.3209,0.6791	-2947.63
0.3262,0.6738	-2952.74
0.2914,0.7086	-2953.14
0.2854,0.7146	-2952.87
0.3311,0.6689	-2947.74
0.2930,0.7070	-2942.42
0.3153,0.6847	-2938.36
0.3034,0.6966	-2945.51
0.3057,0.6943	-2946.27
0.3098,0.6902	-2943.78
0.2968,0.7032	-2952.65
0.3218,0.6782	-2955.83
0.2979,0.7021	-2948.28
0.3240,0.6760	-2950.58
0.3196,0.6804	-2948.39
0.3363,0.6637	-2953.32
0.2987,0.7013	-2949.94
0.3361,0.6639	-2946.51
0.3275,0.6725	-2946.24
0.3286,0.6714	-2939.83
0.2918,0.7082	-2937.14
0.3352,0.6648	-2956.75
0.3148,0.6852	-2948.46
0.3700,0.6300	-2955.95
0.3267,0.6733	-2942.60
0.2997,0.7003	-2943.08
0.3129,0.6871	-2937.48
0.3463,0.6537	-2950.22
0.3126,0.6874	-2949.29
0.3697,0.6303	-2958.60
0.3334,0.6666	-2950.57
0.2739,0.7261	-2921.18
0.3684,0.6316	-2961.26
0.3531,0.6469	-2950.53
0.3222,0.6778	-2946.89
0.3227,0.6773	-2949.12
0.2889,0.7111	-2944.39
0.3206,0.6794	-2940.87
0.3313,0.6687	-2961.09
0.3446,0.6554	-2961.08
0.3102,0.6898	-2946.17
0.3601,0.6399	-2954.97
0.2959,0.7041	-2937.12
0.3407,0.6593	-2947.39
0.3341,0.6659	-2949.19
0.3348,0.6652	-2940.28
0.3060,0.6940	-2936.44
0.3397,0.6603	-2947.34
0.2779,0.7221	-2948.04
0.3697,0.6303	-2953.26
0.3638,0.6362	-2958.47
0.3331,0.6669	-2944.32
0.3285,0.6715	-2951.27
0.3511,0.6489	-2957.80
0.2798,0.7202	-2941.24
0.3188,0.6812	-2942.32
0.3495,0.6505	-2955.95
0.3009,0.6991	-2943.90
0.3126,0.6874	-2946.93
0.3574,0.6426	-2951.95
0.2830,0.7170	-2942.91
0.3300,0.6700	-2948.43
0.3616,0.6384	-2945.36
0.3105,0.6895	-2948.56
0.3001,0.6999	-2929.53
0.3152,0.6848	-2947.67
0.3085,0.6915	-2944.59
0.2945,0.7055	-2939.74
0.3779,0.6221	-2964.37
0.3211,0.6789	-2946.88
0.2990,0.7010	-2943.10
0.2929,0.7071	-2937.13
0.3446,0.6554	-2953.37
0.3239,0.6761	-2946.17
0.3797,0.6203	-2956.02
0.3219,0.6781	-2946.89
0.3163,0.6837	-2953.83
0.3259,0.6741	-2941.12
0.3618,0.6382	-2948.80
0.2864,0.7136	-2949.10
0.3516,0.6484	-2950.45
0.2995,0.7005	-2942.24
0.3204,0.6796	-2938.61
0.3109,0.6891	-2947.75
0.3583,0.6417	-2951.42
0.3232,0.6768	-2943.94
0.3640,0.6360	-2961.26
0.2890,0.7110	-2938.08
0.3109,0.6891	-2941.39
0.3213,0.6787	-2943.89
0.3375,0.6625	-2954.67
0.3710,0.6290	-2951.77
0.3332,0.6668	-2953.34
0.3124,0.6876	-2939.83
0.3021,0.6979	-2954.76
0.2985,0.7015	-2948.24
0.3211,0.6789	-2944.64
0.3631,0.6369	-2957.33
0.3020,0.6980	-2936.33
0.3740,0.6260	-2952.04
0.2889,0.7111	-2936.28
0.3083,0.6917	-2944.59
0.3093,0.6907	-2938.15
0.2919,0.7081	-2945.11
0.3146,0.6854	-2960.92
0.3659,0.6341	-2954.66
0.3390,0.6610	-2955.32
0.3201,0.6799	-2954.41
0.3056,0.6944	-2944.63
0.3267,0.6733	-2944.77
0.3035,0.6965	-2943.84
0.3453,0.6547	-2961.69
0.3155,0.6845	-2949.22
0.3346,0.6654	-2954.02
0.3043,0.6957	-2947.97
0.3071,0.6929	-2953.56
0.3492,0.6508	-2955.94
0.3432,0.6568	-2959.84
0.3342,0.6658	-2942.30
0.2913,0.7087	-2944.26
0.2976,0.7024	-2937.99
0.3224,0.6776	-2955.80
0.3022,0.6978	-2956.42
0.3595,0.6405	-2950.33
0.2851,0.7149	-2944.62
0.2861,0.7139	-2941.81
0.3001,0.6999	-2935.45
0.3366,0.6634	-2950.61
0.3206,0.6794	-2947.63
0.3367,0.6633	-2954.68
0.3257,0.6743	-2949.84
0.2939,0.7061	-2932.74
0.3134,0.6866	-2950.84
0.3062,0.6938	-2932.35
0.2823,0.7177	-2946.69
0.3452,0.6548	-2955.30
0.3485,0.6515	-2949.68
0.2991,0.7009	-2947.36
0.3092,0.6908	-2955.83
0.3123,0.6877	-2932.72
0.2995,0.7005	-2936.29
0.3548,0.6452	-2942.25
0.3572,0.6428	-2950.76
0.3381,0.6619	-2951.98
0.3247,0.6753	-2946.91
0.2945,0.7055	-2946.73
0.3271,0.6729	-2945.51
0.4053,0.5947	-2964.13
0.3871,0.6129	-2961.65
0.3538,0.6462	-2962.01
0.3342,0.6658	-2946.44
0.2926,0.7074	-2940.67
0.2884,0.7116	-2945.32
0.3538,0.6462	-2963.82
0.3522,0.6478	-2951.70
0.3460,0.6540	-2948.29
0.3963,0.6037	-2958.69
0.2971,0.7029	-2944.87
0.3165,0.6835	-2939.19
0.3785,0.6215	-2956.43
0.3212,0.6788	-2953.62
0.3728,0.6272	-2954.53
0.3695,0.6305	-2955.39
0.3120,0.6880	-2956.42
0.3112,0.6888	-2946.95
0.3478,0.6522	-2955.94
0.3067,0.6933	-2944.61
0.3638,0.6362	-2959.59
0.3578,0.6422	-2961.92
0.2968,0.7032	-2956.10
0.3521,0.6479	-2957.19
0.3663,0.6337	-2953.03
0.2929,0.7071	-2938.01
0.3739,0.6261	-2955.64
0.3854,0.6146	-2959.72
0.2850,0.7150	-2938.19
0.3154,0.6846	-2945.34
0.3688,0.6312	-2959.11
0.2973,0.7027	-2948.31
0.3660,0.6340	-2959.61
0.3824,0.6176	-2966.76
0.2808,0.7192	-2944.00
0.3142,0.6858	-2940.66
0.3132,0.6868	-2945.35
0.3311,0.6689	-2948.44
0.3097,0.6903	-2959.01
0.3415,0.6585	-2956.62
0.2789,0.7211	-2929.90
0.3553,0.6447	-2955.42
0.3550,0.6450	-2959.00
0.3098,0.6902	-2948.58
0.3449,0.6551	-2950.16
0.2913,0.7087	-2952.26
0.2882,0.7118	-2939.91
0.3580,0.6420	-2952.57
0.3589,0.6411	-2957.83
0.3246,0.6754	-2952.04
0.3677,0.6323	-2954.21
0.3008,0.6992	-2943.06
0.2735,0.7265	-2929.97
0.3530,0.6470	-2955.98
0.3413,0.6587	-2952.02
0.3339,0.6661	-2950.57
0.3401,0.6599	-2952.00
0.2769,0.7231	-2936.63
0.3051,0.6949	-2942.99
0.2931,0.7069	-2932.73
0.3433,0.6567	-2943.62
0.3239,0.6761	-2948.38
0.3471,0.6529	-2957.20
0.3104,0.6896	-2950.96
0.2633,0.7367	-2933.42
0.3088,0.6912	-2944.59
0.3821,0.6179	-2967.25
0.3349,0.6651	-2947.15
0.3492,0.6508	-2955.94
0.3049,0.6951	-2950.41
0.2976,0.7024	-2949.15
0.3446,0.6554	-2952.08
0.3749,0.6251	-2961.32
0.3037,0.6963	-2941.35
0.2964,0.7036	-2945.77
0.3087,0.6913	-2942.97
0.2915,0.7085	-2946.03
0.2998,0.7002	-2949.02
0.3539,0.6461	-2948.77
0.2956,0.7044	-2940.60
0.3251,0.6749	-2944.00
0.3132,0.6868	-2949.27
0.2949,0.7051	-2945.84
0.2789,0.7211	-2930.84
0.3360,0.6640	-2948.55
0.2991,0.7009	-2952.46
0.3252,0.6748	-2946.92
0.3123,0.6877	-2948.51
0.3030,0.6970	-2943.02
0.3209,0.6791	-2955.13
0.3062,0.6938	-2929.90
0.3003,0.6997	-2934.61
0.2963,0.7037	-2939.72
0.3559,0.6441	-2948.91
0.3243,0.6757	-2948.38
0.3867,0.6133	-2954.25
0.3237,0.6763	-2948.38
0.3369,0.6631	-2941.81
0.3383,0.6617	-2960.70
0.3643,0.6357	-2957.36
0.3419,0.6581	-2953.34
0.3563,0.6437	-2954.85
0.3476,0.6524	-2950.90
0.2835,0.7165	-2942.88
0.3470,0.6530	-2944.55
0.3667,0.6333	-2953.61
0.2971,0.7029	-2950.04
0.3764,0.6236	-2954.28
0.3440,0.6560	-2955.30
0.2794,0.7206	-2936.52
0.3412,0.6588	-2951.36
0.3685,0.6315	-2957.49
0.3027,0.6973	-2943.86
0.3936,0.6064	-2967.54
0.3001,0.6999	-2959.16
0.2846,0.7154	-2935.44
0.3008,0.6992	-2941.37
0.3586,0.6414	-2955.50
0.3213,0.6787	-2944.64
0.3645,0.6355	-2956.26
0.3029,0.6971	-2940.52
0.3129,0.6871	-2954.00
0.3089,0.6911	-2940.56
0.3620,0.6380	-2955.04
0.3268,0.6732	-2951.28
0.3612,0.6388	-2957.29
0.3383,0.6617	-2953.32
0.2894,0.7106	-2933.58
0.3496,0.6504	-2948.50
0.3538,0.6462	-2951.17
0.3451,0.6549	-2949.53
0.3549,0.6451	-2951.23
0.3139,0.6861	-2947.69
0.2798,0.7202	-2942.18
0.3618,0.6382	-2956.74
0.3633,0.6367	-2961.27
0.3278,0.6722	-2953.43
0.3299,0.6701	-2954.80
0.2892,0.7108	-2944.37
0.3182,0.6818	-2952.21
0.3243,0.6757	-2948.38
0.3512,0.6488	-2953.50
0.3251,0.6749	-2940.34
0.3993,0.6007	-2961.00
0.3044,0.6956	-2938.87
0.3236,0.6764	-2956.49
0.2983,0.7017	-2952.53
0.3375,0.6625	-2956.69
0.3276,0.6724	-2941.21
0.3955,0.6045	-2959.05
0.2790,0.7210	-2944.13
0.3165,0.6835	-2941.50
0.3178,0.6822	-2945.35
0.3285,0.6715	-2954.13
0.3156,0.6844	-2944.57
0.3811,0.6189	-2961.94
0.2684,0.7316	-2941.14
0.3355,0.6645	-2951.96
0.3474,0.6526	-2948.37
0.3254,0.6746	-2945.46
0.3142,0.6858	-2946.13
0.3304,0.6696	-2955.50
0.2505,0.7495	-2922.49
0.3490,0.6510	-2954.69
0.3468,0.6532	-2958.47
0.3427,0.6573	-2952.69
0.3177,0.6823	-2949.94
0.3257,0.6743	-2954.93
0.2857,0.7143	-2941.83
0.3704,0.6296	-2955.97
0.3947,0.6053	-2959.84
0.3744,0.6256	-2959.26
0.3351,0.6649	-2942.36
0.3179,0.6821	-2949.93
0.3225,0.6775	-2956.54
0.3781,0.6219	-2956.90
0.3746,0.6254	-2953.63
0.3525,0.6475	-2954.15
0.3161,0.6839	-2939.94
0.3205,0.6795	-2943.12
0.3134,0.6866	-2945.35
0.3897,0.6103	-2954.13
0.3736,0.6264	-2950.97
0.3360,0.6640	-2951.96
0.3346,0.6654	-2949.20
0.2923,0.7077	-2951.28
0.3615,0.6385	-2951.61
0.4169,0.5831	-2966.16
0.3347,0.6653	-2949.89
0.3136,0.6864	-2950.05
0.3749,0.6251	-2960.30
0.3179,0.6821	-2944.59
0.3133,0.6867	-2956.33
0.3771,0.6229	-2965.88
0.3065,0.6935	-2942.17
0.2829,0.7171	-2941.06
0.3954,0.6046	-2965.83
0.3601,0.6399	-2954.97
0.3527,0.6473	-2952.33
0.3323,0.6677	-2945.67
0.3425,0.6575	-2953.34
0.2952,0.7048	-2926.68
0.3944,0.6056	-2958.53
0.3120,0.6880	-2942.19
0.3505,0.6495	-2948.55
0.2689,0.7311	-2934.09
0.3601,0.6399	-2957.85
0.3083,0.6917	-2946.21
0.3808,0.6192	-2963.39
0.3061,0.6939	-2934.80
0.3047,0.6953	-2937.22
0.2724,0.7276	-2935.89
0.3655,0.6345	-2948.57
0.3026,0.6974	-2946.37
0.4157,0.5843	-2965.42
0.3348,0.6652	-2945.09
0.3220,0.6780	-2949.12
0.3148,0.6852	-2955.46
0.3631,0.6369	-2950.59
0.3075,0.6925	-2946.23
0.4334,0.5666	-2966.69
0.3173,0.6827	-2949.95
0.2904,0.7096	-2933.58
0.3065,0.6935	-2942.98
0.3206,0.6794	-2949.88
0.3069,0.6931	-2947.05
0.3570,0.6430	-2956.05
0.3621,0.6379	-2959.58
0.3252,0.6748	-2939.62
0.3159,0.6841	-2943.03
0.3155,0.6845	-2939.15
0.3169,0.6831	-2948.42
0.3602,0.6398	-2945.21
0.3669,0.6331	-2961.26
0.3424,0.6576	-2958.56
0.3083,0.6917	-2958.33
0.2831,0.7169	-2938.26
0.3253,0.6747	-2947.65
0.3696,0.6304	-2954.32
0.3800,0.6200	-2956.53
0.3235,0.6765	-2941.00
0.3064,0.6936	-2939.72
0.3254,0.6746	-2952.02
0.3357,0.6643	-2949.91
0.3431,0.6569	-2952.05
0.3587,0.6413	-2962.48
0.2960,0.7040	-2951.85
0.3358,0.6642	-2954.69
0.3061,0.6939	-2944.62
0.3402,0.6598	-2959.29
0.3344,0.6656	-2960.21
0.3889,0.6111	-2963.97
0.3010,0.6990	-2949.80
0.3138,0.6862	-2950.82
0.3305,0.6695	-2937.14
0.3968,0.6032	-2965.01
0.3013,0.6987	-2943.05
0.3606,0.6394	-2952.12
0.2974,0.7026	-2953.46
0.3326,0.6674	-2951.26
0.3269,0.6731	-2952.00
0.3998,0.6002	-2964.28
0.3123,0.6877	-2947.72
0.3501,0.6499	-2952.86
0.3591,0.6409	-2956.10
0.2869,0.7131	-2939.04
0.3087,0.6913	-2938.14
0.4178,0.5822	-2962.55
0.3264,0.6736	-2957.81
0.3484,0.6516	-2955.94
0.3434,0.6566	-2946.22
0.2871,0.7129	-2944.49
0.3418,0.6582	-2946.78
0.3538,0.6462	-2952.38
0.3144,0.6856	-2947.68
0.3589,0.6411	-2959.57
0.3207,0.6793	-2949.88
0.3111,0.6889	-2943.77
0.3196,0.6804	-2946.12
0.3418,0.6582	-2955.30
0.3254,0.6746	-2949.84
0.3576,0.6424	-2954.30
0.3045,0.6955	-2943.00
0.3697,0.6303	-2958.07
0.3428,0.6572	-2953.34
0.3534,0.6466	-2946.32
0.3449,0.6551	-2945.03
0.3103,0.6897	-2949.37
0.3051,0.6949	-2941.35
0.3586,0.6414	-2950.85
0.3630,0.6370	-2953.40
0.3829,0.6171	-2958.64
0.3527,0.6473	-2954.15
0.3287,0.6713	-2944.84
0.3186,0.6814	-2946.88
0.3700,0.6300	-2955.95
0.3481,0.6519	-2958.45
0.3081,0.6919	-2954.30
0.3403,0.6597	-2940.09
0.3214,0.6786	-2952.12
0.3438,0.6562	-2967.57
0.3664,0.6336	-2957.42
0.3192,0.6808	-2946.88
0.2787,0.7213	-2949.87
0.3432,0.6568	-2957.24
0.3219,0.6781	-2950.61
0.3371,0.6629	-2964.14
0.4011,0.5989	-2962.73
0.3203,0.6797	-2940.11
0.3108,0.6892	-2948.55
0.3356,0.6644	-2949.91
0.3012,0.6988	-2943.05
0.3244,0.6756	-2946.91
0.3602,0.6398	-2965.32
0.3609,0.6391	-2958.43
0.3108,0.6892	-2948.55
0.3123,0.6877	-2946.93
0.3096,0.6904	-2942.97
0.2956,0.7044	-2942.33
0.3413,0.6587	-2942.81
0.3740,0.6260	-2961.31
0.3722,0.6278	-2956.06
0.3120,0.6880	-2942.19
0.3014,0.6986	-2945.57
0.3200,0.6800	-2949.89
0.2908,0.7092	-2946.96
0.3835,0.6165	-2959.62
0.3575,0.6425	-2958.99
0.3138,0.6862	-2947.69
0.3486,0.6514	-2955.94
0.3276,0.6724	-2951.27
0.3247,0.6753	-2949.84
0.3599,0.6401	-2957.27
0.4493,0.5507	-2969.45
0.3299,0.6701	-2954.09
0.3024,0.6976	-2948.88
0.3060,0.6940	-2952.00
0.3339,0.6661	-2949.88
0.3451,0.6549	-2957.22
0.4478,0.5522	-2968.28
0.3143,0.6857	-2950.02
0.3485,0.6515	-2947.81
0.3233,0.6767	-2949.85
0.3414,0.6586	-2962.53
0.3464,0.6536	-2961.65
0.4409,0.5591	-2968.08
0.2731,0.7269	-2925.08
0.3505,0.6495	-2944.23
0.3083,0.6917	-2949.44
0.3297,0.6703	-2951.97
0.3022,0.6978	-2953.91
0.4231,0.5769	-2966.51
0.3024,0.6976	-2943.87
0.3123,0.6877	-2946.14
0.3186,0.6814	-2940.80
0.3077,0.6923	-2939.73
0.2991,0.7009	-2943.10
0.4051,0.5949	-2960.66
0.3519,0.6481	-2957.80
0.3533,0.6467	-2952.96
0.3314,0.6686	-2951.26
0.2750,0.7250	-2953.20
0.2442,0.7558	-2928.52
0.4047,0.5953	-2966.80
0.3395,0.6605	-2949.33
0.3418,0.6582	-2944.16
0.3269,0.6731	-2954.17
0.2930,0.7070	-2931.85
0.2507,0.7493	-2922.48
0.3693,0.6307	-2952.70
0.3420,0.6580	-2951.37
0.3313,0.6687	-2946.34
0.3359,0.6641	-2949.23
0.3008,0.6992	-2947.27
0.2497,0.7503	-2940.13
0.3412,0.6588	-2952.01
0.3592,0.6408	-2954.94
0.3304,0.6696	-2954.79
0.2943,0.7057	-2944.12
0.2978,0.7022	-2931.12
0.2866,0.7134	-2938.14
0.3316,0.6684	-2953.36
0.3777,0.6223	-2958.88
0.3735,0.6265	-2958.20
0.2969,0.7031	-2943.16
0.3158,0.6842	-2944.57
0.2688,0.7312	-2932.10
0.3311,0.6689	-2947.74
0.3301,0.6699	-2944.18
0.2997,0.7003	-2947.33
0.2790,0.7210	-2949.83
0.3242,0.6758	-2948.38
0.2646,0.7354	-2929.25
0.3207,0.6793	-2952.89
0.3455,0.6545	-2952.10
0.2954,0.7046	-2951.03
0.3027,0.6973	-2948.03
0.3445,0.6555	-2952.08
0.2655,0.7345	-2935.31
0.3281,0.6719	-2957.00
0.3462,0.6538	-2958.48
0.3324,0.6676	-2953.35
0.2836,0.7164	-2949.36
0.3436,0.6564	-2960.47
0.2578,0.7422	-2923.26
0.3105,0.6895	-2945.37
0.3588,0.6412	-2954.93
0.3195,0.6805	-2941.58
0.2619,0.7381	-2938.70
0.3308,0.6692	-2945.62
0.2604,0.7396	-2934.67
0.3358,0.6642	-2947.19
0.3499,0.6501	-2954.71
0.3611,0.6389	-2959.00
0.2608,0.7392	-2935.68
0.3622,0.6378	-2952.22
0.2520,0.7480	-2951.80
0.3504,0.6496	-2951.63
0.3441,0.6559	-2950.13
0.3353,0.6647	-2960.17
0.2751,0.7249	-2939.62
0.3140,0.6860	-2943.00
0.2948,0.7052	-2953.69
0.3378,0.6622	-2945.24
0.3226,0.6774	-2942.44
0.3320,0.6680	-2944.97
0.2950,0.7050	-2935.38
0.3469,0.6531	-2953.40
0.3073,0.6927	-2935.67
0.3192,0.6808	-2940.06
0.3097,0.6903	-2954.20
0.3503,0.6497	-2947.30
0.3178,0.6822	-2946.12
0.3174,0.6826	-2944.58
0.3183,0.6817	-2946.12
0.2963,0.7037	-2947.50
0.3400,0.6600	-2956.64
0.3384,0.6616	-2953.99
0.3723,0.6277	-2960.24
0.3327,0.6673	-2945.00
0.3559,0.6441	-2951.87
0.3037,0.6963	-2953.80
0.3298,0.6702	-2944.88
0.3576,0.6424	-2957.82
0.3650,0.6350	-2950.74
0.3471,0.6529	-2953.41
0.4074,0.5926	-2963.86
0.3026,0.6974	-2937.18
0.3610,0.6390	-2954.43
0.3406,0.6594	-2958.61
0.3659,0.6341	-2955.76
0.3118,0.6882	-2943.77
0.3386,0.6614	-2947.96
0.2771,0.7229	-2927.03
0.3682,0.6318	-2953.16
0.3342,0.6658	-2950.57
0.3346,0.6654	-2943.02
0.3363,0.6637	-2951.28
0.3604,0.6396	-2956.70
0.3555,0.6445	-2961.37
0.3825,0.6175	-2953.83
0.3062,0.6938	-2946.26
0.3119,0.6881	-2943.77
0.3463,0.6537	-2957.84
0.3276,0.6724	-2945.52
0.3669,0.6331	-2959.62
0.3773,0.6227	-2951.84
0.2894,0.7106	-2932.68
0.3397,0.6603	-2951.33
0.3127,0.6873	-2941.41
0.3242,0.6758	-2942.50
0.3538,0.6462	-2952.38
0.2891,0.7109	-2948.87
0.3078,0.6922	-2946.22
0.3095,0.6905	-2941.37
0.3019,0.6981	-2944.72
0.3551,0.6449	-2944.08
0.3565,0.6435	-2965.49
0.3061,0.6939	-2947.08
0.3033,0.6967	-2947.17
0.3259,0.6741	-2954.92
0.3096,0.6904	-2951.00
0.3428,0.6572	-2951.39
0.4003,0.5997	-2965.92
0.2745,0.7255	-2938.69
0.3017,0.6983	-2949.75
0.3328,0.6672	-2953.35
0.3406,0.6594	-2946.72
0.3461,0.6539	-2954.66
0.3419,0.6581	-2952.68
0.2862,0.7138	-2949.12
0.3083,0.6917	-2947.02
0.3614,0.6386	-2953.88
0.3479,0.6521	-2943.37
0.3829,0.6171	-2962.94
0.3758,0.6242	-2966.92
0.2875,0.7125	-2944.47
0.3722,0.6278	-2961.29
0.3251,0.6749	-2949.11
0.3530,0.6470	-2946.89
0.3953,0.6047	-2959.88
0.3765,0.6235	-2953.28
0.3331,0.6669	-2951.26
0.3315,0.6685	-2961.08
0.3465,0.6535	-2946.42
0.3629,0.6371	-2952.27
0.3782,0.6218	-2959.89
0.3271,0.6729	-2950.56
0.3191,0.6809	-2942.33
0.3489,0.6511	-2947.83
0.3642,0.6358	-2960.15
0.3720,0.6280	-2950.81
0.3758,0.6242	-2966.92
0.3066,0.6934	-2952.78
0.3321,0.6679	-2954.05
0.3081,0.6919	-2938.12
0.3334,0.6666	-2945.72
0.3405,0.6595	-2949.36
0.3926,0.6074	-2967.11
0.3550,0.6450	-2962.58
0.3237,0.6763	-2941.01
0.3406,0.6594	-2946.06
0.2648,0.7352	-2931.28
0.3325,0.6675	-2946.38
0.3508,0.6492	-2960.26
0.3407,0.6593	-2965.87
0.3404,0.6596	-2946.05
0.3190,0.6810	-2952.19
0.2819,0.7181	-2938.31
0.3409,0.6591	-2958.60
0.2928,0.7072	-2938.90
0.3345,0.6655	-2951.27
0.3467,0.6533	-2947.70
0.2976,0.7024	-2940.56
0.3533,0.6467	-2959.01
0.3612,0.6388	-2954.44
0.2826,0.7174	-2946.66
0.3466,0.6534	-2955.30
0.3437,0.6563	-2954.65
0.2775,0.7225	-2939.48
0.3562,0.6438	-2946.56
0.3699,0.6301	-2951.15
0.2857,0.7143	-2946.42
0.3822,0.6178	-2955.72
0.3297,0.6703	-2945.58
0.2878,0.7122	-2946.26
0.3578,0.6422	-2956.65
0.3760,0.6240	-2960.84
0.3134,0.6866	-2937.50
0.3746,0.6254	-2950.04
0.3348,0.6652	-2947.15
0.3282,0.6718	-2941.24
0.3499,0.6501	-2953.47
0.3446,0.6554	-2952.08
0.3555,0.6445	-2955.42
0.3801,0.6199	-2958.98
0.3196,0.6804	-2940.83
0.3453,0.6547	-2944.42
0.3344,0.6656	-2941.63
0.3838,0.6162	-2960.11
0.3252,0.6748	-2941.08
0.3581,0.6419	-2956.65
0.3265,0.6735	-2946.21
0.3131,0.6869	-2942.99
0.3617,0.6383	-2955.03
0.3163,0.6837	-2947.66
0.3040,0.6960	-2947.98
0.3651,0.6349	-2948.54
0.3104,0.6896	-2941.38
0.3067,0.6933	-2947.06
0.3628,0.6372	-2959.02
0.2754,0.7246	-2931.87
0.2871,0.7129	-2933.58
0.4110,0.5890	-2963.72
0.2872,0.7128	-2931.76
0.2967,0.7033	-2949.21
0.3686,0.6314	-2955.34
0.3096,0.6904	-2943.78
0.2889,0.7111	-2942.59
0.3886,0.6114	-2963.52
0.3043,0.6957	-2947.96
0.2777,0.7223	-2938.51
0.3973,0.6027	-2965.86
0.2966,0.7034	-2949.21
0.3188,0.6812	-2949.91
0.3137,0.6863	-2955.53
0.2937,0.7063	-2938.88
0.3119,0.6881	-2947.73
0.3819,0.6181	-2960.03
0.2666,0.7334	-2932.20
0.3327,0.6673	-2943.60
0.3435,0.6565	-2954.65
0.2967,0.7033	-2939.71
0.2794,0.7206	-2942.21
0.3857,0.6143	-2954.61
0.3445,0.6555	-2951.44
0.3055,0.6945	-2944.63
0.3409,0.6591	-2948.06
0.2962,0.7038	-2941.45
0.3040,0.6960	-2948.81
0.3512,0.6488	-2950.43
0.3140,0.6860	-2945.35
0.3098,0.6902	-2937.37
0.3437,0.6563	-2956.59
0.3156,0.6844	-2949.99
0.3008,0.6992	-2935.47
0.3064,0.6936	-2946.25
0.2844,0.7156	-2937.29
0.3589,0.6411	-2954.93
0.3212,0.6788	-2940.15
0.3119,0.6881	-2950.10
0.3025,0.6975	-2935.51
0.3239,0.6761	-2941.75
0.2807,0.7193	-2940.24
0.3577,0.6423	-2946.70
0.2893,0.7107	-2946.16
0.3343,0.6657	-2948.51
0.3029,0.6971	-2942.19
0.3504,0.6496	-2952.87
0.3195,0.6805	-2946.88
0.3840,0.6160	-2956.82
0.2763,0.7237	-2929.92
0.2993,0.7007	-2951.60
0.3308,0.6692	-2945.62
0.3330,0.6670	-2948.48
0.3251,0.6749	-2944.00
0.3618,0.6382	-2960.71
0.2965,0.7035	-2933.67
0.3375,0.6625	-2948.60
0.3645,0.6355	-2960.15
0.3541,0.6459	-2951.79
0.3337,0.6663	-2952.64
0.3319,0.6681	-2959.65
0.2864,0.7136	-2946.36
0.3282,0.6718	-2957.00
0.3371,0.6629	-2956.02
0.2929,0.7071	-2961.81
0.3457,0.6543	-2959.76
0.2839,0.7161	-2947.48
0.2850,0.7150	-2941.87
0.3244,0.6756	-2949.84
0.3566,0.6434	-2957.81
0.3049,0.6951	-2941.35
0.3043,0.6957	-2931.43
0.3095,0.6905	-2938.16
0.3095,0.6905	-2954.21
0.3665,0.6335	-2955.24
0.3418,0.6582	-2957.92
0.2722,0.7278	-2943.76
0.3071,0.6929	-2945.42
0.2777,0.7223	-2938.51
0.3428,0.6572	-2947.49
0.3760,0.6240	-2960.84
0.3246,0.6754	-2952.04
0.2846,0.7154	-2957.57
0.3341,0.6659	-2959.54
0.3106,0.6894	-2959.72
0.3359,0.6641	-2962.87
0.3432,0.6568	-2952.70
0.3335,0.6665	-2942.26
0.3380,0.6620	-2953.32
0.3474,0.6526	-2958.46
0.3355,0.6645	-2949.91
0.3175,0.6825	-2947.65
0.3608,0.6392	-2960.72
0.3304,0.6696	-2948.43
0.3450,0.6550	-2955.30
0.3049,0.6951	-2948.77
0.3133,0.6867	-2937.50
0.3034,0.6966	-2946.34
0.3342,0.6658	-2956.09
0.3295,0.6705	-2947.00
0.3139,0.6861	-2947.69
0.3325,0.6675	-2941.50
0.3334,0.6666	-2949.18
0.3092,0.6908	-2942.97
0.3068,0.6932	-2953.58
0.2827,0.7173	-2934.55
0.3199,0.6801	-2952.16
0.3115,0.6885	-2939.81
0.3160,0.6840	-2941.48
0.3359,0.6641	-2952.64
0.2980,0.7020	-2937.13
0.3026,0.6974	-2949.71
0.3163,0.6837	-2948.43
0.2969,0.7031	-2948.33
0.3576,0.6424	-2956.65
0.3334,0.6666	-2947.10
0.3055,0.6945	-2943.81
0.2909,0.7091	-2939.82
0.2731,0.7269	-2936.83
0.3553,0.6447	-2960.19
0.3437,0.6563	-2950.77
0.2904,0.7096	-2941.63
0.3416,0.6584	-2948.09
0.3007,0.6993	-2934.62
0.2867,0.7133	-2932.67
0.3274,0.6726	-2940.47
0.3447,0.6553	-2946.94
0.3140,0.6860	-2946.91
0.3375,0.6625	-2953.32
0.2816,0.7184	-2935.51
0.2798,0.7202	-2945.02
0.3050,0.6950	-2947.11
0.3843,0.6157	-2957.30
0.3302,0.6698	-2954.09
0.3081,0.6919	-2942.17
0.3048,0.6952	-2943.82
0.2919,0.7081	-2943.35
0.2950,0.7050	-2954.55
0.3343,0.6657	-2940.24
0.3335,0.6665	-2948.49
0.3466,0.6534	-2951.50
0.2863,0.7137	-2940.89
0.2909,0.7091	-2942.50
0.3038,0.6962	-2945.50
0.3110,0.6890	-2940.59
0.3143,0.6857	-2941.44
0.3538,0.6462	-2954.18
0.3246,0.6754	-2935.92
0.2708,0.7292	-2937.96
0.3251,0.6749	-2945.46
0.3004,0.6996	-2943.91
0.3088,0.6912	-2934.92
0.3505,0.6495	-2952.87
0.3230,0.6770	-2946.90
0.3334,0.6666	-2950.57
0.3027,0.6973	-2940.52
0.3194,0.6806	-2943.85
0.3075,0.6925	-2939.73
0.3337,0.6663	-2958.18
0.3200,0.6800	-2953.66
0.3083,0.6917	-2940.55
0.2944,0.7056	-2949.36
0.3411,0.6589	-2950.70
0.3263,0.6737	-2950.56
0.3404,0.6596	-2957.96
0.3497,0.6503	-2955.33
0.2865,0.7135	-2942.71
0.3585,0.6415	-2952.59
0.3562,0.6438	-2948.34
0.3286,0.6714	-2958.41
0.3528,0.6472	-2952.34
0.3743,0.6257	-2961.31
0.2946,0.7054	-2930.14
0.3453,0.6547	-2956.58
0.3570,0.6430	-2964.88
0.3223,0.6777	-2948.38
0.3600,0.6400	-2958.42
0.3299,0.6701	-2960.47
0.3107,0.6893	-2939.79
0.3475,0.6525	-2953.42
0.3175,0.6825	-2947.65
0.2966,0.7034	-2943.17
0.3737,0.6263	-2964.40
0.2848,0.7152	-2940.04
0.3465,0.6535	-2944.52
0.3166,0.6834	-2957.66
0.3224,0.6776	-2944.66
0.2991,0.7009	-2943.10
0.3599,0.6401	-2952.66
0.3294,0.6706	-2946.28
0.3291,0.6709	-2943.43
0.3402,0.6598	-2952.66
0.3150,0.6850	-2950.78
0.3202,0.6798	-2946.13
0.3498,0.6502	-2946.03
0.3388,0.6612	-2951.98
0.3224,0.6776	-2941.69
0.3287,0.6713	-2954.83
0.2862,0.7138	-2947.29
0.3419,0.6581	-2956.61
0.3417,0.6583	-2950.71
0.3698,0.6302	-2956.47
0.3267,0.6733	-2944.05
0.3278,0.6722	-2946.96
0.2852,0.7148	-2936.35
0.3222,0.6778	-2953.58
0.3411,0.6589	-2948.72
0.3462,0.6538	-2955.94
0.3640,0.6360	-2954.57
0.3217,0.6783	-2947.63
0.2826,0.7174	-2941.07
0.3667,0.6333	-2960.71
0.3288,0.6712	-2955.55
0.3313,0.6687	-2946.34
0.3784,0.6216	-2953.45
0.3056,0.6944	-2942.99
0.3122,0.6878	-2947.72
0.3406,0.6594	-2944.08
0.3063,0.6937	-2948.71
0.3494,0.6506	-2948.48
0.3586,0.6414	-2956.08
0.2921,0.7079	-2936.25
0.3602,0.6398	-2953.83
0.3385,0.6615	-2955.33
0.2878,0.7122	-2950.80
0.3766,0.6234	-2952.28
0.3314,0.6686	-2949.15
0.2932,0.7068	-2954.72
0.3517,0.6483	-2955.96
0.3280,0.6720	-2948.40
0.3046,0.6954	-2947.95
0.3474,0.6526	-2957.83
0.3431,0.6569	-2950.75
0.3041,0.6959	-2948.80
0.2866,0.7134	-2933.58
0.3368,0.6632	-2956.71
0.3104,0.6896	-2952.56
0.3293,0.6707	-2951.97
0.3597,0.6403	-2960.15
0.3087,0.6913	-2943.78
0.2837,0.7163	-2941.01
0.3397,0.6603	-2953.32
0.3340,0.6660	-2948.50
0.3022,0.6978	-2943.87
0.3585,0.6415	-2952.59
0.2785,0.7215	-2949.89
0.3037,0.6963	-2948.82
0.3216,0.6784	-2957.33
0.3236,0.6764	-2954.27
0.2882,0.7118	-2946.23
0.3924,0.6076	-2960.55
0.3117,0.6883	-2942.19
0.3085,0.6915	-2953.47
0.3288,0.6712	-2943.42
0.2989,0.7011	-2948.22
0.2697,0.7303	-2937.04
0.3535,0.6465	-2952.97
0.3342,0.6658	-2949.89
0.2956,0.7044	-2943.20
0.3007,0.6993	-2933.78
0.3035,0.6965	-2933.88
0.3146,0.6854	-2945.34
0.3222,0.6778	-2946.15
0.3266,0.6734	-2935.36
0.2691,0.7309	-2941.08
0.2742,0.7258	-2937.74
0.3073,0.6927	-2944.60
0.3190,0.6810	-2951.43
0.3005,0.6995	-2959.96
0.3161,0.6839	-2957.69
0.3025,0.6975	-2935.51
0.3108,0.6892	-2935.81
0.2943,0.7057	-2952.87
0.3362,0.6638	-2944.48
0.3044,0.6956	-2940.52
0.3256,0.6744	-2945.47
0.3029,0.6971	-2948.02
0.3155,0.6845	-2948.44
0.3340,0.6660	-2956.09
0.3356,0.6644	-2950.59
0.3381,0.6619	-2953.99
0.3217,0.6783	-2937.93
0.3737,0.6263	-2957.69
0.3231,0.6769	-2945.42
0.3365,0.6635	-2956.04
0.3064,0.6936	-2946.25
0.3380,0.6620	-2952.65
0.3434,0.6566	-2953.35
0.3754,0.6246	-2957.77
0.2940,0.7060	-2946.76
0.3239,0.6761	-2958.68
0.3035,0.6965	-2943.01
0.3467,0.6533	-2952.77
0.3110,0.6890	-2943.77
0.3168,0.6832	-2952.26
0.2892,0.7108	-2947.97
0.3224,0.6776	-2949.86
0.3256,0.6744	-2941.10
0.3604,0.6396	-2949.25
0.3598,0.6402	-2954.39
0.3062,0.6938	-2936.44
0.3014,0.6986	-2945.57
0.3129,0.6871	-2941.42
0.3437,0.6563	-2948.18
0.3827,0.6173	-2955.28
0.3544,0.6456	-2950.00
0.2965,0.7035	-2937.99
0.3339,0.6661	-2951.26
0.3173,0.6827	-2953.01
0.3193,0.6807	-2949.91
0.3825,0.6175	-2955.26
0.3152,0.6848	-2950.00
0.3588,0.6412	-2959.57
0.3312,0.6688	-2949.85
0.2999,0.7001	-2947.32
0.3257,0.6743	-2941.83
0.4055,0.5945	-2967.20
0.3076,0.6924	-2938.92
0.3719,0.6281	-2955.52
0.2897,0.7103	-2940.76
0.3738,0.6262	-2954.09
0.2941,0.7059	-2941.50
0.3818,0.6182	-2955.69
0.3084,0.6916	-2961.55
0.3360,0.6640	-2953.32
0.2969,0.7031	-2940.57
0.3256,0.6744	-2949.11
0.2836,0.7164	-2948.43
0.3061,0.6939	-2928.25
0.2960,0.7040	-2948.39
0.3669,0.6331	-2953.07
0.3190,0.6810	-2952.19
0.2822,0.7178	-2943.90
0.3061,0.6939	-2934.80
0.3170,0.6830	-2956.09
0.2681,0.7319	-2943.17
0.3401,0.6599	-2953.99
0.2973,0.7027	-2947.45
0.2992,0.7008	-2948.20
0.3386,0.6614	-2957.34
0.3640,0.6360	-2950.66
0.2616,0.7384	-2935.61
0.3511,0.6489	-2950.43
0.3015,0.6985	-2948.08
0.3157,0.6843	-2944.57
0.3232,0.6768	-2944.68
0.3375,0.6625	-2953.99
0.2863,0.7137	-2937.24
0.3212,0.6788	-2948.38
0.2860,0.7140	-2939.99
0.2997,0.7003	-2943.93
0.3125,0.6875	-2938.26
0.3401,0.6599	-2953.99
0.2897,0.7103	-2931.79
0.2891,0.7109	-2947.98
0.3117,0.6883	-2946.15
0.2835,0.7165	-2948.44
0.3129,0.6871	-2946.14
0.3628,0.6372	-2952.26
0.3112,0.6888	-2950.13
0.3035,0.6965	-2939.69
0.3576,0.6424	-2960.75
0.2871,0.7129	-2944.49
0.3269,0.6731	-2947.67
0.3043,0.6957	-2943.00
0.2927,0.7073	-2934.49
0.3098,0.6902	-2939.77
0.3479,0.6521	-2960.34
0.3016,0.6984	-2937.17
0.3298,0.6702	-2950.55
0.2973,0.7027	-2937.99
0.2923,0.7077	-2938.02
0.2813,0.7187	-2945.84
0.3210,0.6790	-2940.89
0.3027,0.6973	-2953.04
0.3216,0.6784	-2946.14
0.3022,0.6978	-2949.73
0.3215,0.6785	-2955.85
0.3133,0.6867	-2946.92
0.2672,0.7328	-2940.25
0.3063,0.6937	-2941.35
0.3220,0.6780	-2948.38
0.3163,0.6837	-2940.72
0.3244,0.6756	-2946.18
0.3260,0.6740	-2947.66
0.2911,0.7089	-2946.05
0.3234,0.6766	-2941.73
0.3351,0.6649	-2943.73
0.3319,0.6681	-2951.96
0.3355,0.6645	-2947.17
0.3153,0.6847	-2946.12
0.3094,0.6906	-2951.00
0.3188,0.6812	-2946.88
0.3372,0.6628	-2949.26
0.3183,0.6817	-2944.59
0.3484,0.6516	-2944.04
0.3737,0.6263	-2959.24
0.3168,0.6832	-2948.42
0.3004,0.6996	-2945.60
0.3192,0.6808	-2946.88
0.3808,0.6192	-2958.05
0.3544,0.6456	-2954.20
0.3244,0.6756	-2957.18
0.3296,0.6704	-2949.84
0.2725,0.7275	-2952.57
0.2945,0.7055	-2938.00
0.3784,0.6216	-2960.89
0.3162,0.6838	-2946.12
0.3443,0.6557	-2948.21
0.3170,0.6830	-2959.17
0.2867,0.7133	-2939.05
0.2583,0.7417	-2943.29
0.3552,0.6448	-2965.55
0.3512,0.6488	-2960.25
0.3339,0.6661	-2954.02
0.2689,0.7311	-2939.10
0.2846,0.7154	-2945.58
0.2742,0.7258	-2934.82
0.3397,0.6603	-2940.03
0.3475,0.6525	-2957.83
0.3297,0.6703	-2949.13
0.2867,0.7133	-2949.08
0.3129,0.6871	-2949.28
0.2813,0.7187	-2933.64
0.2887,0.7113	-2943.50
0.3168,0.6832	-2952.26
0.3093,0.6907	-2934.14
0.3368,0.6632	-2945.87
0.3169,0.6831	-2956.87
0.3137,0.6863	-2953.96
0.3327,0.6673	-2951.26
0.2985,0.7015	-2949.10
0.2772,0.7228	-2930.87
0.2917,0.7083	-2935.37
0.3132,0.6868	-2954.77
0.3525,0.6475	-2957.80
0.2959,0.7041	-2950.13
0.2881,0.7119	-2934.48
0.2753,0.7247	-2933.81
0.3005,0.6995	-2937.15
0.2979,0.7021	-2952.56
0.3396,0.6604	-2955.32
0.3204,0.6796	-2946.13
0.2797,0.7203	-2945.02
0.2948,0.7052	-2938.00
0.3194,0.6806	-2953.69
0.3257,0.6743	-2945.47
0.3113,0.6887	-2958.06
0.3250,0.6750	-2954.96
0.2911,0.7089	-2940.71
0.3233,0.6767	-2943.20
0.3693,0.6307	-2956.99
0.2968,0.7032	-2942.30
0.3137,0.6863	-2943.78
0.3155,0.6845	-2946.89
0.3392,0.6608	-2960.66
0.3294,0.6706	-2946.28
0.3690,0.6310	-2954.82
0.2710,0.7290	-2930.03
0.3347,0.6653	-2947.14
0.2754,0.7246	-2951.22
0.3416,0.6584	-2952.02
0.3219,0.6781	-2960.30
0.3682,0.6318	-2956.94
0.2832,0.7168	-2942.90
0.3378,0.6622	-2950.63
0.2882,0.7118	-2948.95
0.3132,0.6868	-2938.28
0.3650,0.6350	-2956.83
0.3760,0.6240	-2957.79
0.2861,0.7139	-2936.33
0.3121,0.6879	-2951.68
0.2729,0.7271	-2930.96
0.3197,0.6803	-2946.12
0.3038,0.6962	-2952.13
0.3792,0.6208	-2955.49
0.2938,0.7062	-2952.04
0.3144,0.6856	-2946.90
0.2531,0.7469	-2925.61
0.3508,0.6492	-2951.03
0.2816,0.7184	-2934.57
0.3312,0.6688	-2945.63
0.2717,0.7283	-2938.88
0.3040,0.6960	-2951.29
0.2876,0.7124	-2936.30
0.3444,0.6556	-2951.43
0.2973,0.7027	-2944.01
0.2994,0.7006	-2943.09
0.2885,0.7115	-2937.19
0.3294,0.6706	-2949.13
0.2824,0.7176	-2933.62
0.3589,0.6411	-2957.83
0.2849,0.7151	-2934.51
0.3490,0.6510	-2954.69
0.3063,0.6937	-2951.16
0.3224,0.6776	-2950.60
0.3071,0.6929	-2945.42
0.3402,0.6598	-2948.03
0.3149,0.6851	-2952.34
0.3086,0.6914	-2950.23
0.2865,0.7135	-2946.36
0.3432,0.6568	-2948.16
0.3095,0.6905	-2955.82
0.3044,0.6956	-2949.61
0.3034,0.6966	-2940.52
0.3045,0.6955	-2938.87
0.3051,0.6949	-2944.64
0.3354,0.6646	-2958.80
0.3077,0.6923	-2942.17
0.3071,0.6929	-2938.91
0.3029,0.6971	-2944.69
0.3368,0.6632	-2947.90
0.2964,0.7036	-2932.80
0.3373,0.6627	-2957.37
0.3315,0.6685	-2944.95
0.3239,0.6761	-2951.32
0.2850,0.7150	-2933.59
0.2985,0.7015	-2954.22
0.3070,0.6930	-2950.31
0.3105,0.6895	-2954.14
0.3466,0.6534	-2956.57
0.2965,0.7035	-2935.40
0.2668,0.7332	-2931.18
0.3168,0.6832	-2956.11
0.2786,0.7214	-2935.61
0.3126,0.6874	-2950.08
0.3282,0.6718	-2950.55
0.2741,0.7259	-2936.77
0.2594,0.7406	-2955.74
0.3478,0.6522	-2946.51
0.2977,0.7023	-2931.12
0.2864,0.7136	-2949.10
0.3263,0.6737	-2942.58
0.2881,0.7119	-2935.39
0.2602,0.7398	-2920.06
0.3324,0.6676	-2949.86
0.3596,0.6404	-2958.42
0.3023,0.6977	-2944.70
0.3368,0.6632	-2951.96
0.3221,0.6779	-2949.12
0.3258,0.6742	-2944.02
0.3689,0.6311	-2959.65
0.3809,0.6191	-2959.99
0.3397,0.6603	-2944.02
0.3376,0.6624	-2944.56
0.3156,0.6844	-2940.70
0.3391,0.6609	-2945.31
0.3619,0.6381	-2959.58
0.3675,0.6325	-2956.37
0.3446,0.6554	-2951.44
0.3264,0.6736	-2950.56
0.2818,0.7182	-2942.99
0.3513,0.6487	-2949.83
0.3920,0.6080	-2950.87
0.3335,0.6665	-2952.65
0.2859,0.7141	-2936.33
0.3345,0.6655	-2940.95
0.3330,0.6670	-2947.79
0.3579,0.6421	-2951.98
0.3613,0.6387	-2960.71
0.2974,0.7026	-2943.14
0.3045,0.6955	-2947.13
0.3986,0.6014	-2960.13
0.3452,0.6548	-2951.45
0.3633,0.6367	-2962.39
0.3697,0.6303	-2958.07
0.3004,0.6996	-2948.99
0.2828,0.7172	-2936.41
0.3837,0.6163	-2955.37
0.3274,0.6726	-2951.99
0.3427,0.6573	-2950.09
0.3354,0.6646	-2954.01
0.3095,0.6905	-2950.19
0.3160,0.6840	-2960.79
0.3524,0.6476	-2946.85
0.3507,0.6493	-2952.26
0.3598,0.6402	-2956.69
0.3171,0.6829	-2952.25
0.3595,0.6405	-2958.42
0.3348,0.6652	-2945.78
0.3518,0.6482	-2952.30
0.3496,0.6504	-2954.70
0.3362,0.6638	-2954.68
0.3218,0.6782	-2949.12
0.3204,0.6796	-2949.14
0.3003,0.6997	-2939.69
0.3218,0.6782	-2955.09
0.3446,0.6554	-2951.44
0.3310,0.6690	-2954.07
0.3234,0.6766	-2955.02
0.3424,0.6576	-2957.26
0.3194,0.6806	-2954.44
0.3456,0.6544	-2954.02
0.2927,0.7073	-2946.84
0.3826,0.6174	-2965.32
0.3369,0.6631	-2962.80
0.2958,0.7042	-2937.12
0.3025,0.6975	-2954.72
0.3617,0.6383	-2960.14
0.2804,0.7196	-2935.55
0.3691,0.6309	-2955.37
0.3510,0.6490	-2952.88
0.3307,0.6693	-2944.91
0.2840,0.7160	-2945.62
0.3290,0.6710	-2946.99
0.2942,0.7058	-2930.12
0.3193,0.6807	-2944.61
0.3201,0.6799	-2952.15
0.3334,0.6666	-2948.49
0.2930,0.7070	-2932.73
0.3283,0.6717	-2958.43
0.3108,0.6892	-2938.20
0.3347,0.6653	-2945.77
0.2948,0.7052	-2940.61
0.3000,0.7000	-2934.60
0.2951,0.7049	-2950.19
0.3269,0.6731	-2944.06
0.3309,0.6691	-2961.82
0.3187,0.6813	-2942.32
0.3573,0.6427	-2953.12
0.3035,0.6965	-2942.18
0.3446,0.6554	-2952.72
0.2904,0.7096	-2937.16
0.3245,0.6755	-2949.84
0.3217,0.6783	-2952.11
0.3301,0.6699	-2954.09
0.3311,0.6689	-2952.66
0.3194,0.6806	-2948.39
0.2684,0.7316	-2927.10
0.2981,0.7019	-2951.69
0.2883,0.7117	-2956.18
0.3444,0.6556	-2956.58
0.3404,0.6596	-2957.96
0.3368,0.6632	-2949.93
0.2615,0.7385	-2925.24
0.3165,0.6835	-2936.88
0.2830,0.7170	-2945.70
0.3189,0.6811	-2946.12
0.3534,0.6466	-2950.55
0.3403,0.6597	-2947.37
0.3233,0.6767	-2949.11
0.3314,0.6686	-2951.96
0.3579,0.6421	-2954.90
0.3118,0.6882	-2952.48
0.3731,0.6269	-2959.22
0.3547,0.6453	-2959.60
0.3333,0.6667	-2951.95
0.2644,0.7356	-2942.56
0.3331,0.6669	-2942.93
0.3269,0.6731	-2944.78
0.3625,0.6375	-2958.45
0.3323,0.6677	-2953.35
0.3756,0.6244	-2959.81
0.2964,0.7036	-2935.39
0.3208,0.6792	-2949.88
0.3277,0.6723	-2954.86
0.3350,0.6650	-2956.07
0.3619,0.6381	-2952.77
0.3412,0.6588	-2942.80
0.3106,0.6894	-2950.15
0.3110,0.6890	-2950.14
0.3299,0.6701	-2959.76
0.3406,0.6594	-2947.38
0.3090,0.6910	-2951.83
0.3446,0.6554	-2948.22
0.3605,0.6395	-2950.98
0.2561,0.7439	-2929.72
0.3286,0.6714	-2949.12
0.3162,0.6838	-2946.89
0.3355,0.6645	-2951.96
0.3494,0.6506	-2954.08
0.3219,0.6781	-2946.89
0.2489,0.7511	-2943.56
0.3634,0.6366	-2948.37
0.2944,0.7056	-2944.12
0.2931,0.7069	-2938.89
0.3074,0.6926	-2942.17
0.2960,0.7040	-2944.92
0.2823,0.7177	-2943.89
0.3636,0.6364	-2966.86
0.3214,0.6786	-2943.89
0.2907,0.7093	-2946.96
0.3085,0.6915	-2947.82
0.2932,0.7068	-2940.65
0.2977,0.7023	-2950.00
0.3219,0.6781	-2955.08
0.3144,0.6856	-2944.57
0.3135,0.6865	-2940.64
0.3079,0.6921	-2939.74
0.2903,0.7097	-2946.10
0.3403,0.6597	-2950.01
0.3081,0.6919	-2952.69
0.3064,0.6936	-2942.17
0.3094,0.6906	-2943.78
0.3267,0.6733	-2952.73
0.2786,0.7214	-2935.61
0.3256,0.6744	-2940.37
0.3005,0.6995	-2938.84
0.2771,0.7229	-2941.41
0.3291,0.6709	-2941.29
0.3277,0.6723	-2941.93
0.2626,0.7374	-2933.47
0.3253,0.6747	-2946.19
0.2923,0.7077	-2953.06
0.3180,0.6820	-2946.88
0.3549,0.6451	-2950.63
0.3122,0.6878	-2935.87
0.2823,0.7177	-2944.82
0.3772,0.6228	-2958.86
0.2872,0.7128	-2949.04
0.3491,0.6509	-2961.55
0.3351,0.6649	-2952.64
0.2986,0.7014	-2953.36
0.3354,0.6646	-2958.11
0.3649,0.6351	-2952.95
0.2982,0.7018	-2934.56
0.2947,0.7053	-2947.59
0.3151,0.6849	-2948.45
0.3216,0.6784	-2953.60
0.3152,0.6848	-2932.15
0.3584,0.6416	-2957.24
0.3068,0.6932	-2945.43
0.2943,0.7057	-2948.50
0.2981,0.7019	-2939.70
0.2991,0.7009	-2947.36
0.3094,0.6906	-2947.79
0.3445,0.6555	-2952.72
0.2753,0.7247	-2939.61
0.3263,0.6737	-2949.84
0.3134,0.6866	-2939.07
0.3268,0.6732	-2962.84
0.3298,0.6702	-2953.39
0.3161,0.6839	-2943.03
0.3285,0.6715	-2955.55
0.3601,0.6399	-2945.77
0.3346,0.6654	-2949.20
0.3441,0.6559	-2946.91
0.3243,0.6757	-2949.84
0.3372,0.6628	-2949.94
0.2911,0.7089	-2936.26
0.3728,0.6272	-2952.97
0.3425,0.6575	-2953.34
0.3408,0.6592	-2948.71
0.3127,0.6873	-2937.47
0.3259,0.6741	-2947.66
0.2955,0.7045	-2954.50
0.3393,0.6607	-2945.99
0.3292,0.6708	-2944.86
0.3536,0.6464	-2951.16
0.3420,0.6580	-2950.06
0.3366,0.6634	-2957.39
0.2950,0.7050	-2936.25
0.3148,0.6852	-2953.12
0.3467,0.6533	-2956.57
0.3257,0.6743	-2940.38
0.2862,0.7138	-2937.24
0.3495,0.6505	-2949.11
0.2645,0.7355	-2935.39
0.3399,0.6601	-2955.31
0.3446,0.6554	-2957.87
0.3189,0.6811	-2938.53
0.3826,0.6174	-2959.58
0.3100,0.6900	-2949.38
0.2787,0.7213	-2920.39
0.3297,0.6703	-2958.35
0.3474,0.6526	-2960.98
0.3458,0.6542	-2954.02
0.3389,0.6611	-2945.30
0.3351,0.6649	-2960.86
0.3035,0.6965	-2939.69
0.3128,0.6872	-2949.29
0.3247,0.6753	-2943.98
0.3437,0.6563	-2951.41
0.3808,0.6192	-2951.23
0.3282,0.6718	-2952.70
0.3128,0.6872	-2947.71
0.3027,0.6973	-2949.70
0.3410,0.6590	-2954.65
0.3752,0.6248	-2966.94
0.3783,0.6217	-2956.42
0.3643,0.6357	-2953.47
0.3488,0.6512	-2944.08
0.2901,0.7099	-2946.11
0.3303,0.6697	-2944.90
0.3977,0.6023	-2961.30
0.3475,0.6525	-2956.57
0.3781,0.6219	-2955.91
0.3305,0.6695	-2952.67
0.3025,0.6975	-2945.53
0.2938,0.7062	-2943.27
0.3534,0.6466	-2955.38
0.3475,0.6525	-2948.37
0.3544,0.6456	-2950.60
0.3331,0.6669	-2952.65
0.3193,0.6807	-2946.88
0.3183,0.6817	-2953.73
0.3220,0.6780	-2946.14
0.3350,0.6650	-2949.21
0.3492,0.6508	-2957.81
0.3258,0.6742	-2942.56
0.2618,0.7382	-2937.67
0.3410,0.6590	-2945.43
0.2997,0.7003	-2940.54
0.3214,0.6786	-2955.85
0.3418,0.6582	-2955.96
0.3386,0.6614	-2953.32
0.2581,0.7419	-2933.81
0.3249,0.6751	-2949.84
0.2839,0.7161	-2941.93
0.3188,0.6812	-2943.08
0.3337,0.6663	-2945.73
0.3007,0.6993	-2950.66
0.2889,0.7111	-2943.49
0.2919,0.7081	-2954.86
0.3097,0.6903	-2952.59
0.3555,0.6445	-2959.59
0.3251,0.6749	-2956.41
0.3134,0.6866	-2949.27
0.2970,0.7030	-2945.74
0.3259,0.6741	-2954.20
0.3024,0.6976	-2944.70
0.3528,0.6472	-2954.16
0.3190,0.6810	-2952.19
0.3141,0.6859	-2954.72
0.2981,0.7019	-2947.41
0.3472,0.6528	-2953.41
0.2777,0.7223	-2936.59
0.3526,0.6474	-2958.40
0.3400,0.6600	-2952.00
0.3406,0.6594	-2946.06
0.2842,0.7158	-2942.84
0.3509,0.6491	-2948.57
0.3243,0.6757	-2947.64
0.3944,0.6056	-2958.95
0.2919,0.7081	-2947.77
0.3569,0.6431	-2954.28
0.3107,0.6893	-2954.93
0.3216,0.6784	-2958.08
0.3031,0.6969	-2942.19
0.3253,0.6747	-2946.19
0.2885,0.7115	-2948.93
0.3585,0.6415	-2948.51
0.3490,0.6510	-2946.59
0.3001,0.6999	-2940.53
0.3015,0.6985	-2953.13
0.3100,0.6900	-2939.77
0.3146,0.6854	-2942.23
0.3496,0.6504	-2946.63
0.3668,0.6332	-2953.61
0.3218,0.6782	-2948.38
0.2648,0.7352	-2933.32
0.2731,0.7269	-2948.57
0.2966,0.7034	-2943.17
0.3395,0.6605	-2959.31
0.3825,0.6175	-2955.27
0.3456,0.6544	-2953.38
0.3555,0.6445	-2956.02
0.3178,0.6822	-2945.35
0.2977,0.7023	-2942.28
0.3336,0.6664	-2955.41
0.3332,0.6668	-2957.50
0.2804,0.7196	-2949.68
0.3349,0.6651	-2964.99
0.2851,0.7149	-2926.24
0.2746,0.7254	-2935.77
0.3173,0.6827	-2946.88
0.3482,0.6518	-2955.94
0.3211,0.6789	-2952.12
0.3309,0.6691	-2947.03
0.3328,0.6672	-2945.00
0.2861,0.7139	-2925.36
0.2963,0.7037	-2944.91
0.3748,0.6252	-2955.69
0.3055,0.6945	-2947.10
0.3007,0.6993	-2942.22
0.3465,0.6535	-2952.76
0.2654,0.7346	-2946.52
0.2991,0.7009	-2941.39
0.3403,0.6597	-2952.00
0.3288,0.6712	-2944.13
0.3235,0.6765	-2945.42
0.3426,0.6574	-2950.74
0.2948,0.7052	-2946.72
0.2724,0.7276	-2943.75
0.3155,0.6845	-2945.34
0.3415,0.6585	-2955.30
0.3141,0.6859	-2948.47
0.3234,0.6766	-2943.95
0.3457,0.6543	-2943.18
0.2595,0.7405	-2949.43
0.3078,0.6922	-2944.60
0.3428,0.6572	-2952.69
0.3321,0.6679	-2949.86
0.3338,0.6662	-2952.64
0.3777,0.6223	-2959.88
0.2866,0.7134	-2934.49
0.3327,0.6673	-2939.42
0.3238,0.6762	-2941.75
0.3443,0.6557	-2947.57
0.3539,0.6461	-2952.38
0.3136,0.6864	-2957.88
0.3394,0.6606	-2955.99
0.3429,0.6571	-2952.04
0.3039,0.6961	-2946.32
0.3873,0.6127	-2967.16
0.3114,0.6886	-2948.54
0.2639,0.7361	-2936.45
0.3284,0.6716	-2941.25
0.3493,0.6507	-2957.81
0.3130,0.6870	-2948.49
0.3724,0.6276	-2965.47
0.3204,0.6796	-2952.89
0.2851,0.7149	-2944.62
0.3609,0.6391	-2960.14
0.3762,0.6238	-2956.80
0.2998,0.7002	-2941.39
0.3657,0.6343	-2965.11
0.3517,0.6483	-2957.80
0.2986,0.7014	-2937.99
0.3145,0.6855	-2953.14
0.3530,0.6470	-2958.40
0.2939,0.7061	-2938.00
0.3544,0.6456	-2951.20
0.3167,0.6833	-2956.11
0.3180,0.6820	-2951.46
0.3289,0.6711	-2954.83
0.3361,0.6639	-2962.17
0.3087,0.6913	-2945.39
0.2767,0.7233	-2931.84
0.3636,0.6364	-2957.91
0.3187,0.6813	-2951.44
0.3035,0.6965	-2957.13
0.3433,0.6567	-2950.11
0.3194,0.6806	-2938.56
0.3312,0.6688	-2944.93
0.3597,0.6403	-2954.38
0.3397,0.6603	-2948.67
0.2814,0.7186	-2935.52
0.3195,0.6805	-2948.39
0.3127,0.6873	-2954.01
0.3012,0.6988	-2938.84
0.3741,0.6259	-2954.11
0.2847,0.7153	-2950.18
0.3067,0.6933	-2937.27
0.3224,0.6776	-2939.46
0.3650,0.6350	-2955.17
0.3072,0.6928	-2953.55
0.3315,0.6685	-2951.96
0.2869,0.7131	-2931.76
0.3436,0.6564	-2953.35
0.3596,0.6404	-2953.80
0.3207,0.6793	-2949.13
0.3057,0.6943	-2944.63
0.3608,0.6392	-2961.29
0.2751,0.7249	-2940.60
0.3262,0.6738	-2949.84
0.3213,0.6787	-2945.39
0.2819,0.7181	-2938.30
0.3522,0.6478	-2950.48
0.3142,0.6858	-2951.59
0.2656,0.7344	-2924.12
0.3650,0.6350	-2955.17
0.3616,0.6384	-2962.99
0.2901,0.7099	-2951.48
0.3573,0.6427	-2956.64
0.3230,0.6770	-2948.38
0.2728,0.7272	-2941.74
0.3525,0.6475	-2955.97
0.3546,0.6454	-2955.40
0.2942,0.7058	-2947.62
0.3532,0.6468	-2955.98
0.3433,0.6567	-2955.30
0.3078,0.6922	-2952.70
0.2994,0.7006	-2953.29
0.3780,0.6220	-2957.89
0.3152,0.6848	-2949.22
0.3559,0.6441	-2961.36
0.3271,0.6729	-2955.60
0.3206,0.6794	-2948.38
0.3352,0.6648	-2947.16
0.3448,0.6552	-2955.30
0.3208,0.6792	-2937.88
0.3404,0.6596	-2953.33
0.3394,0.6606	-2942.67
0.3186,0.6814	-2945.36
0.3252,0.6748	-2954.22
0.3025,0.6975	-2937.18
0.3744,0.6256	-2957.21
0.3335,0.6665	-2950.57
0.3555,0.6445	-2951.26
0.2771,0.7229	-2942.38
0.3285,0.6715	-2946.98
0.2977,0.7023	-2943.99
0.3659,0.6341	-2955.76
0.3111,0.6889	-2947.75
0.3310,0.6690	-2947.03
0.2672,0.7328	-2939.23
0.3661,0.6339	-2950.82
0.2821,0.7179	-2960.72
0.3444,0.6556	-2957.23
0.3199,0.6801	-2935.56
0.3254,0.6746	-2938.90
0.2911,0.7089	-2946.94
0.3556,0.6444	-2950.67
0.3084,0.6916	-2939.74
0.3199,0.6801	-2962.72
0.3431,0.6569	-2946.20
0.3526,0.6474	-2954.76
0.2825,0.7175	-2942.01
0.3203,0.6797	-2949.14
0.3386,0.6614	-2951.98
0.2960,0.7040	-2931.06
0.3446,0.6554	-2949.51
0.3574,0.6426	-2955.47
0.2893,0.7107	-2931.78
0.3582,0.6418	-2957.24
0.3263,0.6737	-2952.01
0.2950,0.7050	-2940.61
0.3183,0.6817	-2962.11
0.3131,0.6869	-2954.77
0.3158,0.6842	-2943.03
0.3181,0.6819	-2945.35
0.3190,0.6810	-2941.57
0.2980,0.7020	-2941.41
0.3043,0.6957	-2946.31
0.3759,0.6241	-2957.79
0.3094,0.6906	-2949.40
0.3539,0.6461	-2957.80
0.3074,0.6926	-2955.16
0.2984,0.7016	-2928.58
0.3444,0.6556	-2946.93
0.3706,0.6294	-2954.92
0.3319,0.6681	-2952.66
0.3549,0.6451	-2957.80
0.2505,0.7495	-2945.49
0.3322,0.6678	-2953.35
0.3376,0.6624	-2953.99
0.2855,0.7145	-2948.26
0.3168,0.6832	-2943.81
0.3272,0.6728	-2948.39
0.2369,0.7631	-2942.22
0.3456,0.6544	-2952.74
0.3359,0.6641	-2955.37
0.3097,0.6903	-2943.78
0.3059,0.6941	-2956.10
0.3340,0.6660	-2947.81
0.2415,0.7585	-2942.54
0.3443,0.6557	-2942.41
0.3868,0.6132	-2954.26
0.3051,0.6949	-2952.05
0.2856,0.7144	-2951.01
0.3003,0.6997	-2954.91
0.2554,0.7446	-2935.11
0.3286,0.6714	-2951.98
0.3782,0.6218	-2959.40
0.3592,0.6408	-2953.21
0.2785,0.7215	-2937.51
0.3447,0.6553	-2948.87
0.3015,0.6985	-2939.68
0.3155,0.6845	-2946.89
0.3678,0.6322	-2953.68
0.3230,0.6770	-2947.64
0.3471,0.6529	-2950.25
0.3124,0.6876	-2946.14
0.3174,0.6826	-2940.76
0.3260,0.6740	-2952.74
0.3514,0.6486	-2949.22
0.3348,0.6652	-2941.66
0.3586,0.6414	-2952.01
0.3172,0.6828	-2955.32
0.3271,0.6729	-2959.21
0.3149,0.6851	-2953.12
0.3111,0.6889	-2949.34
0.3486,0.6514	-2947.81
0.3331,0.6669	-2953.34
0.3002,0.6998	-2949.84
0.3157,0.6843	-2936.06
0.2939,0.7061	-2952.90
0.3131,0.6869	-2937.49
0.3536,0.6464	-2957.19
0.2872,0.7128	-2937.21
0.3334,0.6666	-2950.57
0.3633,0.6367	-2961.27
0.3150,0.6850	-2944.57
0.3224,0.6776	-2949.86
0.3839,0.6161	-2962.01
0.2911,0.7089	-2928.25
0.3299,0.6701	-2950.55
0.4101,0.5899	-2963.30
0.3205,0.6795	-2948.38
0.3560,0.6440	-2950.69
0.3392,0.6608	-2962.66
0.2698,0.7302	-2933.05
0.3010,0.6990	-2945.58
0.4601,0.5399	-2970.43
0.3302,0.6698	-2946.31
0.3513,0.6487	-2953.50
0.3177,0.6823	-2952.99
0.2739,0.7261	-2940.68
0.3180,0.6820	-2939.25
0.3997,0.6003	-2967.94
0.3562,0.6438	-2956.62
0.3604,0.6396	-2961.87
0.3223,0.6777	-2941.69
0.2955,0.7045	-2943.20
0.3187,0.6813	-2948.40
0.3654,0.6346	-2949.66
0.3153,0.6847	-2957.75
0.3434,0.6566	-2946.87
0.3436,0.6564	-2955.30
0.2926,0.7074	-2947.73
0.3303,0.6697	-2948.43
0.3624,0.6376	-2952.23
0.3100,0.6900	-2950.98
0.3214,0.6786	-2959.59
0.2972,0.7028	-2952.62
0.3253,0.6747	-2949.11
0.3110,0.6890	-2946.16
0.3239,0.6761	-2949.85
0.3010,0.6990	-2944.74
0.3355,0.6645	-2953.32
0.3085,0.6915	-2938.94
0.3664,0.6336	-2960.16
0.3176,0.6824	-2958.36
0.3157,0.6843	-2946.89
0.2870,0.7130	-2947.23
0.3556,0.6444	-2958.40
0.3314,0.6686	-2945.64
0.3384,0.6616	-2943.93
0.3638,0.6362	-2951.21
0.2926,0.7074	-2940.67
0.2975,0.7025	-2951.74
0.3435,0.6565	-2945.58
0.2945,0.7055	-2931.01
0.2980,0.7020	-2944.84
0.3625,0.6375	-2959.01
0.2936,0.7064	-2947.67
0.3110,0.6890	-2936.62
0.3273,0.6727	-2954.16
0.3236,0.6764	-2950.59
0.2987,0.7013	-2940.55
0.3496,0.6504	-2951.60
0.3225,0.6775	-2935.01
0.3235,0.6765	-2944.69
0.3075,0.6925	-2942.98
0.3062,0.6938	-2945.44
0.3339,0.6661	-2950.57
0.3425,0.6575	-2950.73
0.3288,0.6712	-2948.41
0.2981,0.7019	-2940.55
0.2867,0.7133	-2948.17
0.2709,0.7291	-2933.99
0.3638,0.6362	-2952.88
0.2950,0.7050	-2950.19
0.3292,0.6708	-2947.70
0.2981,0.7019	-2933.70
0.3053,0.6947	-2954.51
0.2945,0.7055	-2942.37
0.3693,0.6307	-2960.73
0.2846,0.7154	-2939.13
0.3525,0.6475	-2962.05
0.3312,0.6688	-2945.63
0.3436,0.6564	-2954.65
0.3077,0.6923	-2938.92
0.4032,0.5968	-2962.46
0.2745,0.7255	-2942.58
0.3632,0.6368	-2954.53
0.3568,0.6432	-2966.65
0.3216,0.6784	-2946.14
0.3114,0.6886	-2947.74
0.3386,0.6614	-2945.95
0.2751,0.7249	-2938.66
0.3744,0.6256	-2958.75
0.3142,0.6858	-2950.81
0.3264,0.6736	-2950.56
0.3009,0.6991	-2945.59
0.3808,0.6192	-2958.04
0.2983,0.7017	-2948.25
0.3972,0.6028	-2965.86
0.3733,0.6267	-2963.89
0.3823,0.6177	-2957.65
0.3007,0.6993	-2943.91
0.3742,0.6258	-2948.97
0.3151,0.6849	-2939.13
0.3814,0.6186	-2958.56
0.3385,0.6615	-2949.30
0.3881,0.6119	-2959.86
0.2840,0.7160	-2942.85
0.4180,0.5820	-2964.89
0.2984,0.7016	-2938.84
0.3581,0.6419	-2957.24
0.3507,0.6493	-2951.64
0.3558,0.6442	-2957.21
0.3330,0.6670	-2943.62
0.3929,0.6071	-2966.24
0.3286,0.6714	-2942.69
0.3461,0.6539	-2957.21
0.3253,0.6747	-2953.49
0.3702,0.6298	-2954.37
0.3000,0.7000	-2936.30
0.3379,0.6621	-2947.94
0.3227,0.6773	-2946.89
0.3465,0.6535	-2946.42
0.3095,0.6905	-2936.55
0.3548,0.6452	-2956.60
0.2866,0.7134	-2945.43
0.3515,0.6485	-2954.74
0.3068,0.6932	-2947.87
0.2883,0.7117	-2938.10
0.3443,0.6557	-2957.87
0.3417,0.6583	-2953.99
0.2971,0.7029	-2950.04
0.3722,0.6278	-2951.36
0.3368,0.6632	-2943.84
0.2909,0.7091	-2943.39
0.3203,0.6797	-2950.64
0.3830,0.6170	-2954.83
0.3179,0.6821	-2950.70
0.3723,0.6277	-2953.98
0.3700,0.6300	-2958.08
0.2839,0.7161	-2940.08
0.3707,0.6293	-2952.28
0.3696,0.6304	-2957.00
0.2885,0.7115	-2939.90
0.3353,0.6647	-2951.96
0.3232,0.6768	-2957.98
0.2735,0.7265	-2946.58
0.3986,0.6014	-2959.30
0.3429,0.6571	-2947.49
0.3142,0.6858	-2943.00
0.3402,0.6598	-2948.69
0.3560,0.6440	-2956.03
0.3011,0.6989	-2945.58
0.3598,0.6402	-2958.99
0.3460,0.6540	-2954.66
0.3193,0.6807	-2951.42
0.3292,0.6708	-2949.13
0.3604,0.6396	-2950.39
0.3190,0.6810	-2959.77
0.3563,0.6437	-2954.85
0.3285,0.6715	-2951.98
0.3300,0.6700	-2953.38
0.3412,0.6588	-2946.10
0.3438,0.6562	-2956.59
0.3192,0.6808	-2949.91
0.3872,0.6128	-2959.81
0.3313,0.6687	-2953.36
0.3392,0.6608	-2954.65
0.3612,0.6388	-2970.97
0.3561,0.6439	-2953.66
0.3319,0.6681	-2953.35
0.3561,0.6439	-2947.14
0.3279,0.6721	-2946.25
0.3022,0.6978	-2948.05
0.3211,0.6789	-2952.12
0.3678,0.6322	-2952.05
0.3332,0.6668	-2938.07
0.3349,0.6651	-2954.01
0.3525,0.6475	-2951.11
0.2941,0.7059	-2948.50
0.3150,0.6850	-2936.02
0.3805,0.6195	-2958.03
0.3247,0.6753	-2953.50
0.3220,0.6780	-2946.89
0.3962,0.6038	-2964.16
0.3215,0.6785	-2943.15
0.3161,0.6839	-2943.80
0.3800,0.6200	-2952.61
0.3510,0.6490	-2962.10
0.3569,0.6431	-2952.51
0.4086,0.5914	-2962.45
0.3093,0.6907	-2934.14
0.3394,0.6606	-2953.32
0.3874,0.6126	-2955.69
0.3584,0.6416	-2955.50
0.3413,0.6587	-2951.36
0.3804,0.6196	-2952.66
0.3299,0.6701	-2946.30
0.3562,0.6438	-2951.29
0.3428,0.6572	-2947.49
0.3261,0.6739	-2951.29
0.3203,0.6797	-2947.63
0.3796,0.6204	-2959.45
0.3099,0.6901	-2940.57
0.3202,0.6798	-2932.57
0.3926,0.6074	-2957.08
0.3712,0.6288	-2959.17
0.3253,0.6747	-2946.92
0.3561,0.6439	-2958.99
0.3478,0.6522	-2950.91
0.3560,0.6440	-2954.84
0.3863,0.6137	-2965.78
0.3423,0.6577	-2946.15
0.3584,0.6416	-2944.43
0.3142,0.6858	-2941.44
0.3508,0.6492	-2954.11
0.3314,0.6686	-2956.17
0.3319,0.6681	-2956.15
0.3427,0.6573	-2952.69
0.3105,0.6895	-2947.76
0.3022,0.6978	-2940.52
0.3312,0.6688	-2949.15
0.3066,0.6934	-2949.51
0.3172,0.6828	-2943.05
0.3515,0.6485	-2947.38
0.3296,0.6704	-2951.97
0.2690,0.7310	-2940.08
0.3509,0.6491	-2950.42
0.2943,0.7057	-2939.75
0.2904,0.7096	-2929.12
0.3300,0.6700	-2954.09
0.3032,0.6968	-2940.52
0.3010,0.6990	-2932.10
0.3470,0.6530	-2960.36
0.2933,0.7067	-2949.44
0.2499,0.7501	-2943.40
0.3637,0.6363	-2957.91
0.2876,0.7124	-2947.19
0.2905,0.7095	-2944.30
0.3570,0.6430	-2947.81
0.3181,0.6819	-2945.35
0.2224,0.7776	-2920.34
0.3691,0.6309	-2960.73
0.2534,0.7466	-2939.64
0.3559,0.6441	-2945.94
0.3328,0.6672	-2950.56
0.3199,0.6801	-2952.91
0.2420,0.7580	-2935.60
0.3927,0.6073	-2962.75
0.3136,0.6864	-2944.56
0.3343,0.6657	-2955.40
0.3396,0.6604	-2946.01
0.3017,0.6983	-2946.40
0.2664,0.7336	-2948.42
0.3801,0.6199	-2964.85
0.2879,0.7121	-2931.77
0.3558,0.6442	-2957.80
0.3152,0.6848	-2934.48
0.3380,0.6620	-2935.17
0.2996,0.7004	-2943.09
0.3626,0.6374	-2952.81
0.3196,0.6804	-2951.41
0.3548,0.6452	-2955.41
0.3123,0.6877	-2946.93
0.3751,0.6249	-2958.77
0.3170,0.6830	-2940.74
0.3515,0.6485	-2950.45
0.3027,0.6973	-2943.02
0.3542,0.6458	-2946.39
0.3405,0.6595	-2937.46
0.3798,0.6202	-2955.04
0.3115,0.6885	-2947.74
0.4066,0.5934	-2963.82
0.3175,0.6825	-2948.41
0.3525,0.6475	-2953.54
0.3312,0.6688	-2954.77
0.3746,0.6254	-2961.83
0.3121,0.6879	-2939.82
0.3505,0.6495	-2951.63
0.3435,0.6565	-2950.76
0.3346,0.6654	-2944.39
0.3014,0.6986	-2941.37
0.3462,0.6538	-2959.75
0.2763,0.7237	-2947.25
0.3294,0.6706	-2941.31
0.3463,0.6537	-2947.04
0.3143,0.6857	-2933.64
0.2980,0.7020	-2947.41
0.3355,0.6645	-2944.44
0.2892,0.7108	-2943.47
0.3328,0.6672	-2953.34
0.3485,0.6515	-2955.94
0.3016,0.6984	-2940.52
0.2938,0.7062	-2939.76
0.3360,0.6640	-2954.68
0.3295,0.6705	-2952.68
0.3383,0.6617	-2953.99
0.3858,0.6142	-2952.77
0.3148,0.6852	-2951.57
0.2817,0.7183	-2947.68
0.3030,0.6970	-2948.85
0.3353,0.6647	-2949.90
0.3319,0.6681	-2945.66
0.3815,0.6185	-2959.05
0.2789,0.7211	-2936.55
0.3126,0.6874	-2939.84
0.3060,0.6940	-2942.99
0.2729,0.7271	-2947.61
0.3038,0.6962	-2944.67
0.3515,0.6485	-2958.41
0.3047,0.6953	-2950.42
0.2992,0.7008	-2947.35
0.3768,0.6232	-2955.32
0.2890,0.7110	-2945.28
0.2910,0.7090	-2935.37
0.3225,0.6775	-2951.34
0.3575,0.6425	-2956.64
0.3417,0.6583	-2954.65
0.3203,0.6797	-2943.12
0.3147,0.6853	-2941.45
0.3038,0.6962	-2947.99
0.3114,0.6886	-2950.12
0.3736,0.6264	-2954.58
0.3029,0.6971	-2946.36
0.3312,0.6688	-2949.85
0.3086,0.6914	-2936.52
0.3093,0.6907	-2948.60
0.3200,0.6800	-2946.88
0.3418,0.6582	-2955.96
0.3143,0.6857	-2937.55
0.3228,0.6772	-2945.41
0.3212,0.6788	-2943.14
0.3212,0.6788	-2948.38
0.3360,0.6640	-2944.47
0.3111,0.6889	-2948.54
0.3207,0.6793	-2950.63
0.3259,0.6741	-2949.84
0.3203,0.6797	-2942.37
0.3162,0.6838	-2951.51
0.2799,0.7201	-2941.23
0.2856,0.7144	-2933.59
0.3233,0.6767	-2952.07
0.3441,0.6559	-2952.71
0.2924,0.7076	-2953.93
0.3112,0.6888	-2952.52
0.3092,0.6908	-2944.58
0.3116,0.6884	-2938.22
0.3275,0.6725	-2950.55
0.3428,0.6572	-2955.95
0.3169,0.6831	-2940.74
0.3207,0.6793	-2962.64
0.2931,0.7069	-2938.01
0.3274,0.6726	-2947.68
0.3548,0.6452	-2951.22
0.3588,0.6412	-2946.79
0.2905,0.7095	-2950.55
0.2945,0.7055	-2935.38
0.2752,0.7248	-2934.78
0.3446,0.6554	-2957.22
0.3285,0.6715	-2950.55
0.3776,0.6224	-2956.87
0.2858,0.7142	-2929.92
0.3087,0.6913	-2953.45
0.2672,0.7328	-2934.19
0.3353,0.6647	-2955.38
0.3195,0.6805	-2946.12
0.3648,0.6352	-2959.04
0.3265,0.6735	-2951.28
0.3118,0.6882	-2950.90
0.3023,0.6977	-2938.01
0.3504,0.6496	-2963.36
0.3329,0.6671	-2956.13
0.3864,0.6136	-2955.14
0.3417,0.6583	-2948.74
0.3332,0.6668	-2954.73
0.3371,0.6629	-2949.94
0.3541,0.6459	-2944.58
0.3492,0.6508	-2951.59
0.3384,0.6616	-2954.66
0.3660,0.6340	-2960.71
0.3716,0.6284	-2959.71
0.3308,0.6692	-2946.33
0.3526,0.6474	-2954.76
0.3550,0.6450	-2948.24
0.3266,0.6734	-2940.43
0.3182,0.6818	-2952.21
0.3275,0.6725	-2949.12
0.3237,0.6763	-2943.96
0.2942,0.7058	-2942.38
0.3805,0.6195	-2961.44
0.3236,0.6764	-2952.80
0.3238,0.6762	-2953.53
0.3030,0.6970	-2943.85
0.3266,0.6734	-2941.87
0.3111,0.6889	-2945.36
0.3611,0.6389	-2951.01
0.3386,0.6614	-2952.65
0.2783,0.7217	-2939.43
0.3318,0.6682	-2954.06
0.3442,0.6558	-2957.23
0.3502,0.6498	-2962.13
0.3554,0.6446	-2957.21
0.3262,0.6738	-2944.03
0.2738,0.7262	-2945.57
0.3475,0.6525	-2955.31
0.3221,0.6779	-2946.14
0.3491,0.6509	-2950.96
0.3247,0.6753	-2944.72
0.3002,0.6998	-2946.46
0.3069,0.6931	-2940.54
0.3101,0.6899	-2945.37
0.3030,0.6970	-2947.19
0.3373,0.6627	-2950.62
0.3343,0.6657	-2954.02
0.2676,0.7324	-2934.17
0.3167,0.6833	-2949.96
0.3416,0.6584	-2947.43
0.3214,0.6786	-2943.15
0.3447,0.6553	-2954.01
0.3673,0.6327	-2949.84
0.3148,0.6852	-2945.34
0.2992,0.7008	-2950.75
0.3589,0.6411	-2954.35
0.3538,0.6462	-2951.17
0.3456,0.6544	-2949.55
0.3536,0.6464	-2948.15
0.3560,0.6440	-2945.36
0.3355,0.6645	-2955.37
0.3338,0.6662	-2956.10
0.3431,0.6569	-2962.44
0.3426,0.6574	-2952.69
0.3295,0.6705	-2943.44
0.3702,0.6298	-2954.89
0.3133,0.6867	-2950.06
0.3693,0.6307	-2956.98
0.3861,0.6139	-2962.54
0.3283,0.6717	-2949.84
0.3813,0.6187	-2962.43
0.3488,0.6512	-2956.57
0.3132,0.6868	-2939.07
0.3552,0.6448	-2950.65
0.3543,0.6457	-2953.60
0.3531,0.6469	-2955.98
0.4209,0.5791	-2962.23
0.2946,0.7054	-2951.10
0.3207,0.6793	-2952.14
0.3287,0.6713	-2946.98
0.3853,0.6147	-2960.18
0.3459,0.6541	-2952.11
0.3768,0.6232	-2958.84
0.2748,0.7252	-2945.46
0.3332,0.6668	-2947.79
0.2896,0.7104	-2932.68
0.3192,0.6808	-2951.42
0.3019,0.6981	-2942.20
0.3728,0.6272	-2955.57
0.2546,0.7454	-2935.19
0.3196,0.6804	-2946.12
0.3463,0.6537	-2948.95
0.3542,0.6458	-2957.80
0.2969,0.7031	-2939.71
0.3920,0.6080	-2957.02
0.3072,0.6928	-2947.05
0.2886,0.7114	-2937.19
0.3312,0.6688	-2954.07
0.3149,0.6851	-2940.68
0.3220,0.6780	-2952.84
0.3833,0.6167	-2961.99
0.2965,0.7035	-2944.90
0.3425,0.6575	-2957.91
0.3008,0.6992	-2939.69
0.3324,0.6676	-2951.95
0.3414,0.6586	-2950.05
0.3363,0.6637	-2947.20
0.3172,0.6828	-2947.65
0.3416,0.6584	-2946.12
0.2881,0.7119	-2943.53
0.3069,0.6931	-2952.76
0.3821,0.6179	-2956.20
0.3359,0.6641	-2958.09
0.2919,0.7081	-2940.68
0.3734,0.6266	-2958.71
0.3276,0.6724	-2951.99
0.3082,0.6918	-2952.68
0.3276,0.6724	-2946.96
0.3527,0.6473	-2946.26
0.2938,0.7062	-2949.40
0.3568,0.6432	-2957.22
0.3396,0.6604	-2948.67
0.3311,0.6689	-2959.70
0.3474,0.6526	-2950.26
0.3305,0.6695	-2950.55
0.3403,0.6597	-2946.04
0.3262,0.6738	-2946.93
0.3145,0.6855	-2939.89
0.3335,0.6665	-2934.65
