#isoforms=['ENSG00000110080.SE.2.A.up_ENSG00000110080.SE.2.A.SE1_ENSG00000110080.SE.2.A.dn','ENSG00000110080.SE.2.B.up_ENSG00000110080.SE.2.B.dn']	exon_lens=('ENSG00000110080.SE.2.A.up',61),('ENSG00000110080.SE.2.A.SE1',96),('ENSG00000110080.SE.2.A.dn',190),('ENSG00000110080.SE.2.B.up',61),('ENSG00000110080.SE.2.B.dn',190)	iters=5000	burn_in=500	lag=10	percent_accept=96.46	proposal_type=drift	counts=(0,0):375,(1,0):178,(1,1):138	assigned_counts=0:316	chrom=chr11	strand=+	mRNA_starts=126407574,126407574	mRNA_ends=126408496,126408496
sampled_psi	log_score
0.9697,0.0303	-1760.81
0.9394,0.0606	-1761.42
0.9568,0.0432	-1774.35
0.9318,0.0682	-1788.79
0.9822,0.0178	-1764.51
0.9272,0.0728	-1768.50
0.9645,0.0355	-1764.51
0.9429,0.0571	-1780.49
0.9561,0.0439	-1780.52
0.9371,0.0629	-1783.39
0.9824,0.0176	-1748.44
0.9291,0.0709	-1786.25
0.9700,0.0300	-1760.79
0.9380,0.0620	-1786.08
0.9656,0.0344	-1767.78
0.9379,0.0621	-1786.08
0.9838,0.0162	-1760.56
0.9401,0.0599	-1777.82
0.9725,0.0275	-1757.08
0.9407,0.0593	-1772.26
0.9635,0.0365	-1780.93
0.9253,0.0747	-1773.81
0.9810,0.0190	-1756.52
0.9541,0.0459	-1771.37
0.9811,0.0189	-1748.61
0.9430,0.0570	-1755.24
0.9594,0.0406	-1761.69
0.9368,0.0632	-1780.70
0.9831,0.0169	-1752.40
0.9588,0.0412	-1774.34
0.9775,0.0225	-1760.47
0.9485,0.0515	-1771.68
0.9499,0.0501	-1768.65
0.9356,0.0644	-1764.69
0.9797,0.0203	-1756.57
0.9621,0.0379	-1767.89
0.9744,0.0256	-1753.28
0.9508,0.0492	-1771.54
0.9583,0.0417	-1761.80
0.9503,0.0497	-1771.57
0.9835,0.0165	-1752.36
0.9661,0.0339	-1761.08
0.9783,0.0217	-1768.07
0.9593,0.0407	-1761.70
0.9637,0.0363	-1767.84
0.9636,0.0364	-1754.74
0.9858,0.0142	-1747.97
0.9624,0.0376	-1761.40
0.9783,0.0217	-1749.04
0.9521,0.0479	-1774.45
0.9622,0.0378	-1758.18
0.9608,0.0392	-1771.15
0.9845,0.0155	-1760.60
0.9578,0.0422	-1777.47
0.9775,0.0225	-1752.93
0.9646,0.0354	-1764.50
0.9592,0.0408	-1768.02
0.9645,0.0355	-1764.51
0.9865,0.0135	-1743.60
0.9587,0.0413	-1768.05
0.9772,0.0228	-1756.72
0.9677,0.0323	-1754.15
0.9640,0.0360	-1754.68
0.9652,0.0348	-1757.82
0.9877,0.0123	-1747.74
0.9567,0.0433	-1774.35
0.9751,0.0249	-1753.20
0.9743,0.0257	-1753.29
0.9690,0.0310	-1771.18
0.9696,0.0304	-1778.13
0.9876,0.0124	-1743.39
0.9543,0.0457	-1774.40
0.9767,0.0233	-1764.22
0.9818,0.0182	-1748.51
0.9638,0.0362	-1764.55
0.9702,0.0298	-1753.81
0.9895,0.0105	-1747.56
0.9597,0.0403	-1771.17
0.9754,0.0246	-1753.16
0.9790,0.0210	-1768.14
0.9621,0.0379	-1767.89
0.9743,0.0257	-1756.93
0.9885,0.0115	-1747.66
0.9519,0.0481	-1762.52
0.9732,0.0268	-1767.80
0.9756,0.0244	-1753.14
0.9584,0.0416	-1764.93
0.9772,0.0228	-1764.23
0.9880,0.0120	-1743.31
0.9409,0.0591	-1775.01
0.9688,0.0312	-1760.87
0.9734,0.0266	-1753.40
0.9642,0.0358	-1754.65
0.9751,0.0249	-1764.20
0.9861,0.0139	-1756.46
0.9404,0.0596	-1775.05
0.9716,0.0284	-1760.70
0.9705,0.0295	-1767.75
0.9723,0.0277	-1760.65
0.9676,0.0324	-1767.75
0.9858,0.0142	-1747.98
0.9362,0.0638	-1767.29
0.9685,0.0315	-1764.32
0.9713,0.0287	-1767.75
0.9706,0.0294	-1771.24
0.9636,0.0364	-1774.39
0.9779,0.0221	-1749.09
0.9170,0.0830	-1779.60
0.9685,0.0315	-1767.74
0.9739,0.0261	-1760.58
0.9612,0.0388	-1771.14
0.9631,0.0369	-1777.64
0.9800,0.0200	-1752.66
0.9191,0.0809	-1784.26
0.9741,0.0259	-1760.57
0.9735,0.0265	-1760.60
0.9570,0.0430	-1774.35
0.9680,0.0320	-1760.93
0.9774,0.0226	-1752.93
0.9060,0.0940	-1792.12
0.9733,0.0267	-1760.61
0.9747,0.0253	-1760.55
0.9580,0.0420	-1758.71
0.9634,0.0366	-1764.58
0.9803,0.0197	-1756.55
0.8970,0.1030	-1786.21
0.9708,0.0292	-1757.24
0.9804,0.0196	-1756.54
0.9536,0.0464	-1768.37
0.9598,0.0402	-1768.00
0.9805,0.0195	-1752.62
0.9129,0.0871	-1794.13
0.9653,0.0347	-1754.48
0.9792,0.0208	-1748.90
0.9512,0.0488	-1765.57
0.9635,0.0365	-1767.84
0.9796,0.0204	-1756.58
0.9286,0.0714	-1781.14
0.9715,0.0285	-1753.64
0.9808,0.0192	-1752.59
0.9566,0.0434	-1761.99
0.9567,0.0433	-1768.16
0.9790,0.0210	-1756.61
0.9388,0.0612	-1786.08
0.9739,0.0261	-1749.71
0.9787,0.0213	-1756.63
0.9594,0.0406	-1783.83
0.9579,0.0421	-1761.84
0.9808,0.0192	-1752.59
0.9406,0.0594	-1775.03
0.9752,0.0248	-1778.88
0.9789,0.0211	-1768.13
0.9683,0.0317	-1764.32
0.9698,0.0302	-1767.74
0.9846,0.0154	-1760.61
0.9390,0.0610	-1772.41
0.9756,0.0244	-1760.51
0.9821,0.0179	-1760.49
0.9728,0.0272	-1753.48
0.9711,0.0289	-1760.72
0.9879,0.0121	-1743.32
0.9221,0.0779	-1784.06
0.9733,0.0267	-1757.01
0.9846,0.0154	-1743.97
0.9733,0.0267	-1753.41
0.9744,0.0256	-1764.20
0.9893,0.0107	-1756.63
0.9475,0.0525	-1763.07
0.9741,0.0259	-1753.31
0.9887,0.0113	-1747.64
0.9699,0.0301	-1757.33
0.9820,0.0180	-1760.48
0.9893,0.0107	-1752.10
0.9443,0.0557	-1783.30
0.9722,0.0278	-1760.66
0.9892,0.0108	-1743.08
0.9689,0.0311	-1767.74
0.9821,0.0179	-1748.47
0.9876,0.0124	-1752.14
0.9565,0.0435	-1774.36
0.9605,0.0395	-1771.15
0.9883,0.0117	-1752.12
0.9645,0.0355	-1761.21
0.9841,0.0159	-1752.33
0.9833,0.0167	-1764.61
0.9656,0.0344	-1781.12
0.9579,0.0421	-1771.22
0.9888,0.0112	-1747.62
0.9720,0.0280	-1774.86
0.9859,0.0141	-1752.21
0.9796,0.0204	-1752.70
0.9700,0.0300	-1753.84
0.9595,0.0405	-1768.01
0.9873,0.0127	-1743.43
0.9713,0.0287	-1757.18
0.9883,0.0117	-1752.12
0.9785,0.0215	-1756.63
0.9747,0.0253	-1760.55
0.9558,0.0442	-1768.22
0.9880,0.0120	-1747.72
0.9644,0.0356	-1771.11
0.9877,0.0123	-1760.90
0.9741,0.0259	-1753.32
0.9749,0.0251	-1753.22
0.9540,0.0460	-1771.37
0.9856,0.0144	-1752.23
0.9634,0.0366	-1761.30
0.9882,0.0118	-1756.55
0.9719,0.0281	-1760.68
0.9778,0.0222	-1749.11
0.9499,0.0501	-1759.83
0.9851,0.0149	-1764.83
0.9625,0.0375	-1761.39
0.9892,0.0108	-1743.08
0.9754,0.0246	-1764.20
0.9837,0.0163	-1748.25
0.9468,0.0532	-1771.79
0.9816,0.0184	-1744.56
0.9598,0.0402	-1761.65
0.9876,0.0124	-1747.76
0.9762,0.0238	-1756.78
0.9821,0.0179	-1748.47
0.9341,0.0659	-1788.78
0.9821,0.0179	-1748.47
0.9615,0.0385	-1767.92
0.9865,0.0135	-1747.89
0.9742,0.0258	-1756.93
0.9789,0.0211	-1760.45
0.9426,0.0574	-1766.51
0.9832,0.0168	-1764.59
0.9694,0.0306	-1753.91
0.9847,0.0153	-1748.12
0.9770,0.0230	-1752.98
0.9786,0.0214	-1756.63
0.9504,0.0496	-1771.56
0.9842,0.0158	-1764.72
0.9658,0.0342	-1761.10
0.9836,0.0164	-1748.27
0.9792,0.0208	-1756.60
0.9786,0.0214	-1748.99
0.9532,0.0468	-1777.44
0.9830,0.0170	-1760.52
0.9585,0.0415	-1771.20
0.9828,0.0172	-1752.42
0.9817,0.0183	-1764.46
0.9787,0.0213	-1756.62
0.9456,0.0544	-1763.31
0.9825,0.0175	-1748.42
0.9569,0.0431	-1780.55
0.9830,0.0170	-1748.34
0.9778,0.0222	-1760.46
0.9822,0.0178	-1752.47
0.9517,0.0483	-1777.45
0.9803,0.0197	-1752.64
0.9473,0.0527	-1774.65
0.9850,0.0150	-1743.89
0.9767,0.0233	-1782.89
0.9818,0.0182	-1756.49
0.9483,0.0517	-1762.96
0.9791,0.0209	-1756.61
0.9419,0.0581	-1763.81
0.9881,0.0119	-1752.12
0.9824,0.0176	-1756.47
0.9764,0.0236	-1753.04
0.9487,0.0513	-1768.75
0.9790,0.0210	-1756.61
0.9504,0.0496	-1774.51
0.9887,0.0113	-1747.64
0.9825,0.0175	-1744.39
0.9798,0.0202	-1752.69
0.9560,0.0440	-1777.44
0.9781,0.0219	-1749.06
0.9527,0.0473	-1780.44
0.9874,0.0126	-1760.86
0.9852,0.0148	-1760.65
0.9806,0.0194	-1748.69
0.9514,0.0486	-1777.45
0.9772,0.0228	-1756.72
0.9591,0.0409	-1761.72
0.9844,0.0156	-1752.30
0.9874,0.0126	-1747.78
0.9808,0.0192	-1760.46
0.9472,0.0528	-1763.11
0.9788,0.0212	-1752.79
0.9556,0.0444	-1765.16
0.9864,0.0136	-1747.90
0.9871,0.0129	-1752.16
0.9804,0.0196	-1744.81
0.9525,0.0475	-1765.45
0.9793,0.0207	-1764.31
0.9505,0.0495	-1768.60
0.9855,0.0145	-1752.24
0.9874,0.0126	-1743.43
0.9825,0.0175	-1748.42
0.9567,0.0433	-1768.16
0.9806,0.0194	-1748.69
0.9399,0.0601	-1788.83
0.9818,0.0182	-1752.50
0.9855,0.0145	-1752.24
0.9841,0.0159	-1756.45
0.9506,0.0494	-1771.55
0.9784,0.0216	-1764.27
0.9444,0.0556	-1769.13
0.9824,0.0176	-1752.45
0.9813,0.0187	-1764.43
0.9851,0.0149	-1748.07
0.9538,0.0462	-1762.30
0.9676,0.0324	-1771.15
0.9548,0.0452	-1762.19
0.9877,0.0123	-1747.75
0.9837,0.0163	-1760.55
0.9864,0.0136	-1756.47
0.9523,0.0477	-1765.46
0.9669,0.0331	-1754.26
0.9618,0.0382	-1777.58
0.9878,0.0122	-1760.92
0.9869,0.0131	-1743.52
0.9874,0.0126	-1747.78
0.9572,0.0428	-1768.13
0.9640,0.0360	-1757.96
0.9621,0.0379	-1764.65
0.9879,0.0121	-1747.73
0.9887,0.0113	-1747.64
0.9881,0.0119	-1752.12
0.9591,0.0409	-1780.65
0.9630,0.0370	-1771.12
0.9655,0.0345	-1774.45
0.9898,0.0102	-1747.53
0.9897,0.0103	-1765.79
0.9879,0.0121	-1743.33
0.9541,0.0459	-1771.37
0.9626,0.0374	-1758.13
0.9715,0.0285	-1771.29
0.9879,0.0121	-1747.73
0.9876,0.0124	-1760.90
0.9876,0.0124	-1765.26
0.9349,0.0651	-1780.79
0.9589,0.0411	-1761.74
0.9698,0.0302	-1764.27
0.9893,0.0107	-1756.63
0.9853,0.0147	-1752.25
0.9888,0.0112	-1747.62
0.9360,0.0640	-1786.10
0.9595,0.0405	-1777.50
0.9657,0.0343	-1757.77
0.9882,0.0118	-1752.12
0.9869,0.0131	-1752.17
0.9897,0.0103	-1747.54
0.9403,0.0597	-1788.84
0.9629,0.0371	-1758.09
0.9597,0.0403	-1761.65
0.9887,0.0113	-1743.17
0.9876,0.0124	-1747.76
0.9895,0.0105	-1761.20
0.9419,0.0581	-1777.73
0.9646,0.0354	-1764.50
0.9657,0.0343	-1754.43
0.9881,0.0119	-1747.70
0.9848,0.0152	-1752.28
0.9892,0.0108	-1752.10
0.9518,0.0482	-1762.54
0.9665,0.0335	-1761.04
0.9646,0.0354	-1771.11
0.9891,0.0109	-1747.60
0.9819,0.0181	-1752.50
0.9894,0.0106	-1752.10
0.9561,0.0439	-1768.20
0.9658,0.0342	-1767.78
0.9625,0.0375	-1771.12
0.9909,0.0091	-1742.74
0.9816,0.0184	-1748.55
0.9874,0.0126	-1747.78
0.9529,0.0471	-1753.38
0.9614,0.0386	-1758.28
0.9646,0.0354	-1767.81
0.9917,0.0083	-1747.36
0.9813,0.0187	-1756.51
0.9884,0.0116	-1747.67
0.9548,0.0452	-1768.28
0.9573,0.0427	-1765.01
0.9709,0.0291	-1760.74
0.9897,0.0103	-1752.10
0.9774,0.0226	-1752.93
0.9904,0.0096	-1756.74
0.9542,0.0458	-1789.58
0.9580,0.0420	-1768.09
0.9702,0.0298	-1757.29
0.9906,0.0094	-1747.46
0.9817,0.0183	-1772.42
0.9891,0.0109	-1752.10
0.9641,0.0359	-1757.95
0.9638,0.0362	-1771.11
0.9732,0.0268	-1764.20
0.9879,0.0121	-1747.73
0.9784,0.0216	-1752.83
0.9870,0.0130	-1756.49
0.9625,0.0375	-1764.63
0.9618,0.0382	-1764.68
0.9762,0.0238	-1756.79
0.9858,0.0142	-1747.97
0.9837,0.0163	-1752.36
0.9867,0.0133	-1752.17
0.9543,0.0457	-1768.32
0.9587,0.0413	-1768.05
0.9717,0.0283	-1753.62
0.9858,0.0142	-1752.22
0.9802,0.0198	-1748.75
0.9893,0.0107	-1747.58
0.9606,0.0394	-1777.54
0.9566,0.0434	-1761.99
0.9693,0.0307	-1757.38
0.9847,0.0153	-1748.13
0.9823,0.0177	-1756.48
0.9897,0.0103	-1747.54
0.9595,0.0405	-1771.17
0.9501,0.0499	-1783.36
0.9680,0.0320	-1757.52
0.9832,0.0168	-1756.46
0.9801,0.0199	-1744.86
0.9891,0.0109	-1743.10
0.9641,0.0359	-1774.40
0.9539,0.0461	-1768.35
0.9677,0.0323	-1760.95
0.9844,0.0156	-1748.16
0.9740,0.0260	-1756.95
0.9885,0.0115	-1747.67
0.9672,0.0328	-1757.61
0.9516,0.0484	-1768.51
0.9682,0.0318	-1754.08
0.9888,0.0112	-1747.63
0.9644,0.0356	-1751.33
0.9914,0.0086	-1747.38
0.9642,0.0358	-1761.23
0.9543,0.0457	-1774.40
0.9756,0.0244	-1756.83
0.9904,0.0096	-1752.11
0.9656,0.0344	-1784.45
0.9927,0.0073	-1742.38
0.9680,0.0320	-1764.34
0.9617,0.0383	-1761.46
0.9811,0.0189	-1752.57
0.9879,0.0121	-1752.13
0.9687,0.0313	-1764.31
0.9913,0.0087	-1742.65
0.9679,0.0321	-1788.19
0.9616,0.0384	-1774.35
0.9811,0.0189	-1756.52
0.9879,0.0121	-1752.13
0.9656,0.0344	-1764.45
0.9913,0.0087	-1752.13
0.9608,0.0392	-1783.94
0.9678,0.0322	-1774.56
0.9805,0.0195	-1768.29
0.9891,0.0109	-1747.59
0.9693,0.0307	-1767.74
0.9924,0.0076	-1747.32
0.9539,0.0461	-1756.23
0.9694,0.0306	-1757.37
0.9799,0.0201	-1756.56
0.9864,0.0136	-1752.19
0.9708,0.0292	-1760.74
0.9909,0.0091	-1742.74
0.9495,0.0505	-1762.81
0.9754,0.0246	-1760.52
0.9774,0.0226	-1756.70
0.9897,0.0103	-1752.10
0.9769,0.0231	-1756.74
0.9930,0.0070	-1742.33
0.9492,0.0508	-1768.71
0.9766,0.0234	-1760.49
0.9803,0.0197	-1756.55
0.9901,0.0099	-1747.50
0.9728,0.0272	-1753.47
0.9947,0.0053	-1747.23
0.9437,0.0563	-1769.20
0.9689,0.0311	-1764.30
0.9792,0.0208	-1756.60
0.9884,0.0116	-1752.12
0.9793,0.0207	-1756.59
0.9955,0.0045	-1741.83
0.9612,0.0388	-1764.72
0.9681,0.0319	-1767.75
0.9779,0.0221	-1760.46
0.9884,0.0116	-1747.67
0.9800,0.0200	-1760.45
0.9955,0.0045	-1741.84
0.9640,0.0360	-1764.54
0.9704,0.0296	-1750.30
0.9774,0.0226	-1764.24
0.9878,0.0122	-1752.13
0.9825,0.0175	-1752.45
0.9950,0.0050	-1752.51
0.9641,0.0359	-1771.11
0.9586,0.0414	-1768.06
0.9783,0.0217	-1749.04
0.9890,0.0110	-1761.10
0.9849,0.0151	-1752.27
0.9941,0.0059	-1747.24
0.9577,0.0423	-1761.87
0.9643,0.0357	-1757.93
0.9808,0.0192	-1756.53
0.9880,0.0120	-1743.31
0.9892,0.0108	-1747.59
0.9933,0.0067	-1752.26
0.9714,0.0286	-1750.12
0.9661,0.0339	-1761.07
0.9768,0.0232	-1753.00
0.9870,0.0130	-1756.49
0.9907,0.0093	-1747.45
0.9933,0.0067	-1752.27
0.9691,0.0309	-1753.96
0.9630,0.0370	-1751.56
0.9786,0.0214	-1756.63
0.9887,0.0113	-1747.64
0.9929,0.0071	-1742.34
0.9911,0.0089	-1742.70
0.9683,0.0317	-1764.32
0.9643,0.0357	-1757.93
0.9750,0.0250	-1753.21
0.9848,0.0152	-1748.11
0.9929,0.0071	-1752.23
0.9897,0.0103	-1761.23
0.9701,0.0299	-1750.34
0.9661,0.0339	-1757.72
0.9773,0.0227	-1764.23
0.9824,0.0176	-1744.40
0.9931,0.0069	-1747.27
0.9910,0.0090	-1752.12
0.9711,0.0289	-1767.75
0.9655,0.0345	-1757.79
0.9808,0.0192	-1752.60
0.9818,0.0182	-1756.49
0.9905,0.0095	-1747.46
0.9901,0.0099	-1756.71
0.9683,0.0317	-1754.07
0.9654,0.0346	-1771.12
0.9736,0.0264	-1746.15
0.9834,0.0166	-1748.30
0.9880,0.0120	-1756.54
0.9917,0.0083	-1742.59
0.9692,0.0308	-1774.64
0.9562,0.0438	-1755.86
0.9714,0.0286	-1771.28
0.9839,0.0161	-1752.34
0.9897,0.0103	-1742.96
0.9896,0.0104	-1743.00
0.9684,0.0316	-1757.48
0.9685,0.0315	-1757.47
0.9757,0.0243	-1771.59
0.9818,0.0182	-1744.52
0.9909,0.0091	-1747.43
0.9904,0.0096	-1752.11
0.9720,0.0280	-1757.13
0.9644,0.0356	-1764.51
0.9797,0.0203	-1760.45
0.9862,0.0138	-1747.93
0.9881,0.0119	-1743.29
0.9884,0.0116	-1756.56
0.9662,0.0338	-1774.48
0.9605,0.0395	-1774.34
0.9814,0.0186	-1744.60
0.9874,0.0126	-1752.15
0.9883,0.0117	-1747.68
0.9875,0.0125	-1743.40
0.9639,0.0361	-1754.68
0.9591,0.0409	-1771.18
0.9840,0.0160	-1760.57
0.9892,0.0108	-1747.59
0.9879,0.0121	-1760.94
0.9878,0.0122	-1752.13
0.9742,0.0258	-1760.57
0.9646,0.0354	-1764.50
0.9847,0.0153	-1748.12
0.9901,0.0099	-1747.50
0.9898,0.0102	-1747.53
0.9860,0.0140	-1752.21
0.9751,0.0249	-1749.52
0.9635,0.0365	-1771.11
0.9777,0.0223	-1749.13
0.9912,0.0088	-1752.13
0.9882,0.0118	-1765.40
0.9852,0.0148	-1743.87
0.9745,0.0255	-1756.91
0.9645,0.0355	-1767.81
0.9738,0.0262	-1756.97
0.9893,0.0107	-1747.58
0.9885,0.0115	-1747.66
0.9860,0.0140	-1747.95
0.9740,0.0260	-1760.57
0.9615,0.0385	-1771.13
0.9678,0.0322	-1767.75
0.9879,0.0121	-1752.13
0.9875,0.0125	-1747.77
0.9877,0.0123	-1752.13
0.9794,0.0206	-1748.86
0.9663,0.0337	-1761.06
0.9637,0.0363	-1774.39
0.9848,0.0152	-1752.28
0.9842,0.0158	-1760.58
0.9880,0.0120	-1747.71
0.9776,0.0224	-1760.47
0.9591,0.0409	-1771.18
0.9704,0.0296	-1764.26
0.9836,0.0164	-1748.27
0.9855,0.0145	-1752.23
0.9878,0.0122	-1743.35
0.9731,0.0269	-1760.61
0.9601,0.0399	-1774.34
0.9698,0.0302	-1767.74
0.9790,0.0210	-1756.61
0.9830,0.0170	-1752.40
0.9860,0.0140	-1747.95
0.9811,0.0189	-1752.57
0.9624,0.0376	-1771.12
0.9706,0.0294	-1753.76
0.9747,0.0253	-1753.25
0.9861,0.0139	-1769.26
0.9875,0.0125	-1752.14
0.9830,0.0170	-1776.76
0.9618,0.0382	-1761.45
0.9629,0.0371	-1771.12
0.9763,0.0237	-1764.21
0.9875,0.0125	-1752.14
0.9878,0.0122	-1765.32
0.9865,0.0135	-1747.89
0.9683,0.0317	-1757.48
0.9683,0.0317	-1771.16
0.9805,0.0195	-1752.62
0.9870,0.0130	-1756.49
0.9852,0.0148	-1752.25
0.9851,0.0149	-1743.88
0.9711,0.0289	-1764.24
0.9684,0.0316	-1771.16
0.9845,0.0155	-1748.14
0.9884,0.0116	-1743.23
0.9853,0.0147	-1748.04
0.9856,0.0144	-1760.68
0.9773,0.0227	-1756.71
0.9664,0.0336	-1757.69
0.9860,0.0140	-1747.96
0.9883,0.0117	-1752.12
0.9870,0.0130	-1756.49
0.9878,0.0122	-1760.92
0.9723,0.0277	-1757.10
0.9675,0.0325	-1764.36
0.9828,0.0172	-1752.42
0.9868,0.0132	-1747.85
0.9886,0.0114	-1747.65
0.9911,0.0089	-1742.69
0.9717,0.0283	-1767.76
0.9645,0.0355	-1761.21
0.9819,0.0181	-1752.49
0.9859,0.0141	-1743.72
0.9863,0.0137	-1752.19
0.9927,0.0073	-1742.39
0.9698,0.0302	-1757.33
0.9551,0.0449	-1759.10
0.9779,0.0221	-1752.88
0.9841,0.0159	-1752.32
0.9821,0.0179	-1752.48
0.9941,0.0059	-1752.36
0.9711,0.0289	-1760.72
0.9637,0.0363	-1751.45
0.9789,0.0211	-1768.13
0.9818,0.0182	-1752.50
0.9847,0.0153	-1756.45
0.9948,0.0052	-1741.97
0.9689,0.0311	-1750.54
0.9616,0.0384	-1767.91
0.9843,0.0157	-1744.02
0.9842,0.0158	-1752.32
0.9836,0.0164	-1748.27
0.9955,0.0045	-1741.85
0.9688,0.0312	-1757.43
0.9582,0.0418	-1783.74
0.9844,0.0156	-1748.15
0.9889,0.0111	-1747.62
0.9866,0.0134	-1747.88
0.9956,0.0044	-1741.83
0.9709,0.0291	-1757.23
0.9590,0.0410	-1771.19
0.9848,0.0152	-1752.28
0.9906,0.0094	-1752.11
0.9873,0.0127	-1752.15
0.9953,0.0047	-1747.23
0.9713,0.0287	-1778.31
0.9446,0.0554	-1774.79
0.9880,0.0120	-1752.13
0.9913,0.0087	-1742.65
0.9848,0.0152	-1748.11
0.9951,0.0049	-1741.93
0.9706,0.0294	-1764.25
0.9527,0.0473	-1768.44
0.9905,0.0095	-1747.46
0.9903,0.0097	-1752.11
0.9823,0.0177	-1756.48
0.9947,0.0053	-1747.23
0.9748,0.0252	-1753.24
0.9540,0.0460	-1774.40
0.9892,0.0108	-1747.59
0.9893,0.0107	-1743.04
0.9819,0.0181	-1752.50
0.9957,0.0043	-1747.24
0.9722,0.0278	-1771.32
0.9486,0.0514	-1757.09
0.9897,0.0103	-1752.10
0.9899,0.0101	-1742.93
0.9807,0.0193	-1752.60
0.9951,0.0049	-1747.23
0.9722,0.0278	-1771.33
0.9437,0.0563	-1772.02
0.9905,0.0095	-1756.75
0.9896,0.0104	-1752.10
0.9798,0.0202	-1748.81
0.9949,0.0051	-1741.96
0.9659,0.0341	-1761.09
0.9440,0.0560	-1803.07
0.9897,0.0103	-1742.97
0.9897,0.0103	-1742.97
0.9802,0.0198	-1748.75
0.9956,0.0044	-1741.82
0.9583,0.0417	-1764.93
0.9462,0.0538	-1763.24
0.9910,0.0090	-1742.72
0.9875,0.0125	-1747.77
0.9838,0.0162	-1764.66
0.9964,0.0036	-1747.29
0.9560,0.0440	-1780.52
0.9324,0.0676	-1767.79
0.9904,0.0096	-1752.11
0.9840,0.0160	-1748.22
0.9807,0.0193	-1744.75
0.9954,0.0046	-1741.86
0.9587,0.0413	-1771.19
0.9407,0.0593	-1761.21
0.9903,0.0097	-1770.62
0.9788,0.0212	-1771.95
0.9782,0.0218	-1752.85
0.9954,0.0046	-1741.86
0.9595,0.0405	-1768.01
0.9456,0.0544	-1769.02
0.9913,0.0087	-1752.13
0.9828,0.0172	-1756.47
0.9771,0.0229	-1764.23
0.9958,0.0042	-1747.25
0.9582,0.0418	-1758.68
0.9425,0.0575	-1769.32
0.9892,0.0108	-1747.58
0.9811,0.0189	-1748.62
0.9738,0.0262	-1764.20
0.9962,0.0038	-1747.27
0.9641,0.0359	-1774.40
0.9536,0.0464	-1774.41
0.9930,0.0070	-1747.28
0.9809,0.0191	-1752.58
0.9675,0.0325	-1771.14
0.9970,0.0030	-1741.55
0.9712,0.0288	-1750.16
0.9504,0.0496	-1765.66
0.9926,0.0074	-1742.40
0.9809,0.0191	-1756.52
0.9675,0.0325	-1750.78
0.9973,0.0027	-1741.49
0.9708,0.0292	-1760.74
0.9557,0.0443	-1765.15
0.9919,0.0081	-1752.15
0.9817,0.0183	-1752.51
0.9701,0.0299	-1753.83
0.9974,0.0026	-1741.47
0.9728,0.0272	-1760.63
0.9578,0.0422	-1764.97
0.9924,0.0076	-1752.19
0.9757,0.0243	-1749.43
0.9680,0.0320	-1764.34
0.9976,0.0024	-1741.43
0.9718,0.0282	-1764.22
0.9647,0.0353	-1754.57
0.9921,0.0079	-1747.33
0.9793,0.0207	-1756.59
0.9694,0.0306	-1757.37
0.9977,0.0023	-1741.41
0.9717,0.0283	-1757.15
0.9647,0.0353	-1771.11
0.9916,0.0084	-1752.14
0.9856,0.0144	-1748.01
0.9683,0.0317	-1771.16
0.9968,0.0032	-1741.58
0.9700,0.0300	-1753.83
0.9692,0.0308	-1764.29
0.9932,0.0068	-1742.29
0.9856,0.0144	-1760.68
0.9569,0.0431	-1771.25
0.9973,0.0027	-1741.49
0.9694,0.0306	-1760.83
0.9663,0.0337	-1767.77
0.9918,0.0082	-1742.57
0.9887,0.0113	-1743.17
0.9585,0.0415	-1764.92
0.9974,0.0026	-1741.47
0.9662,0.0338	-1761.06
0.9716,0.0284	-1764.23
0.9913,0.0087	-1752.13
0.9899,0.0101	-1752.10
0.9649,0.0351	-1781.05
0.9975,0.0025	-1741.45
0.9701,0.0299	-1778.18
0.9687,0.0313	-1760.88
0.9919,0.0081	-1747.35
0.9910,0.0090	-1747.42
0.9656,0.0344	-1757.78
0.9977,0.0023	-1741.41
0.9685,0.0315	-1757.46
0.9579,0.0421	-1761.84
0.9933,0.0067	-1742.26
0.9886,0.0114	-1743.19
0.9724,0.0276	-1760.65
0.9973,0.0027	-1741.49
0.9655,0.0345	-1774.45
0.9638,0.0362	-1767.83
0.9936,0.0064	-1747.25
0.9896,0.0104	-1743.00
0.9740,0.0260	-1756.95
0.9979,0.0021	-1747.53
0.9633,0.0367	-1754.78
0.9656,0.0344	-1761.11
0.9945,0.0055	-1747.23
0.9888,0.0112	-1747.63
0.9732,0.0268	-1749.83
0.9977,0.0023	-1741.40
0.9661,0.0339	-1767.77
0.9666,0.0334	-1754.30
0.9934,0.0066	-1742.25
0.9891,0.0109	-1756.61
0.9699,0.0301	-1757.32
0.9975,0.0025	-1741.46
0.9619,0.0381	-1761.44
0.9644,0.0356	-1751.32
0.9936,0.0064	-1752.29
0.9874,0.0126	-1747.78
0.9731,0.0269	-1757.02
0.9978,0.0022	-1741.39
0.9573,0.0427	-1768.13
0.9664,0.0336	-1754.33
0.9948,0.0052	-1741.98
0.9888,0.0112	-1743.15
0.9748,0.0252	-1753.23
0.9980,0.0020	-1747.57
0.9572,0.0428	-1765.03
0.9534,0.0466	-1762.35
0.9948,0.0052	-1741.97
0.9880,0.0120	-1747.72
0.9781,0.0219	-1749.07
0.9981,0.0019	-1747.61
0.9632,0.0368	-1761.32
0.9584,0.0416	-1764.93
0.9940,0.0060	-1752.35
0.9882,0.0118	-1743.26
0.9813,0.0187	-1748.59
0.9981,0.0019	-1747.59
0.9739,0.0261	-1753.34
0.9641,0.0359	-1764.53
0.9953,0.0047	-1747.23
0.9899,0.0101	-1747.52
0.9748,0.0252	-1775.17
0.9982,0.0018	-1741.32
0.9700,0.0300	-1771.22
0.9650,0.0350	-1764.48
0.9948,0.0052	-1752.49
0.9892,0.0108	-1743.07
0.9790,0.0210	-1756.61
0.9983,0.0017	-1741.30
0.9664,0.0336	-1754.33
0.9708,0.0292	-1764.25
0.9950,0.0050	-1752.53
0.9859,0.0141	-1752.21
0.9814,0.0186	-1752.54
0.9985,0.0015	-1741.26
0.9656,0.0344	-1767.78
0.9682,0.0318	-1754.07
0.9955,0.0045	-1747.24
0.9876,0.0124	-1747.76
0.9820,0.0180	-1756.49
0.9982,0.0018	-1741.31
0.9634,0.0366	-1771.11
0.9726,0.0274	-1753.50
0.9957,0.0043	-1741.81
0.9878,0.0122	-1765.32
0.9853,0.0147	-1748.04
0.9984,0.0016	-1741.28
0.9669,0.0331	-1767.76
0.9739,0.0261	-1749.72
0.9957,0.0043	-1747.24
0.9894,0.0106	-1756.64
0.9824,0.0176	-1748.43
0.9985,0.0015	-1741.26
0.9570,0.0430	-1780.56
0.9778,0.0222	-1752.89
0.9963,0.0037	-1741.68
0.9894,0.0106	-1752.10
0.9819,0.0181	-1760.48
0.9987,0.0013	-1741.21
0.9638,0.0362	-1757.99
0.9789,0.0211	-1752.77
0.9965,0.0035	-1741.64
0.9893,0.0107	-1747.57
0.9837,0.0163	-1756.45
0.9990,0.0010	-1741.16
0.9567,0.0433	-1761.98
0.9772,0.0228	-1764.23
0.9954,0.0046	-1747.23
0.9874,0.0126	-1747.79
0.9853,0.0147	-1752.25
0.9988,0.0012	-1741.21
0.9624,0.0376	-1764.63
0.9776,0.0224	-1756.69
0.9961,0.0039	-1747.26
0.9863,0.0137	-1743.64
0.9825,0.0175	-1752.45
0.9987,0.0013	-1741.21
0.9629,0.0371	-1754.84
0.9803,0.0197	-1756.55
0.9961,0.0039	-1741.71
0.9828,0.0172	-1760.51
0.9828,0.0172	-1764.55
0.9991,0.0009	-1741.14
0.9628,0.0372	-1771.12
0.9810,0.0190	-1752.57
0.9957,0.0043	-1741.79
0.9812,0.0188	-1748.60
0.9845,0.0155	-1748.15
0.9992,0.0008	-1748.23
0.9636,0.0364	-1767.84
0.9832,0.0168	-1748.32
0.9954,0.0046	-1741.85
0.9818,0.0182	-1756.49
0.9839,0.0161	-1760.56
0.9992,0.0008	-1741.13
0.9629,0.0371	-1761.35
0.9833,0.0167	-1756.46
0.9955,0.0045	-1747.24
0.9811,0.0189	-1760.46
0.9858,0.0142	-1752.22
0.9990,0.0010	-1741.15
0.9558,0.0442	-1777.44
0.9852,0.0148	-1743.85
0.9952,0.0048	-1752.56
0.9796,0.0204	-1752.70
0.9881,0.0119	-1752.12
0.9987,0.0013	-1741.21
0.9564,0.0436	-1758.92
0.9860,0.0140	-1747.95
0.9933,0.0067	-1752.26
0.9781,0.0219	-1756.66
0.9908,0.0092	-1742.75
0.9986,0.0014	-1741.25
0.9643,0.0357	-1751.33
0.9878,0.0122	-1743.35
0.9937,0.0063	-1742.19
0.9768,0.0232	-1753.00
0.9908,0.0092	-1752.11
0.9981,0.0019	-1741.33
0.9647,0.0353	-1767.80
0.9879,0.0121	-1760.94
0.9940,0.0060	-1742.13
0.9714,0.0286	-1760.71
0.9910,0.0090	-1747.42
0.9982,0.0018	-1741.31
0.9693,0.0307	-1764.29
0.9912,0.0088	-1752.12
0.9946,0.0054	-1742.01
0.9712,0.0288	-1760.72
0.9921,0.0079	-1747.33
0.9980,0.0020	-1747.57
0.9629,0.0371	-1771.12
0.9908,0.0092	-1742.76
0.9955,0.0045	-1758.03
0.9676,0.0324	-1771.15
0.9904,0.0096	-1747.47
0.9981,0.0019	-1741.33
0.9691,0.0309	-1767.74
0.9898,0.0102	-1747.52
0.9951,0.0049	-1747.23
0.9686,0.0314	-1754.02
0.9879,0.0121	-1743.33
0.9984,0.0016	-1741.27
0.9671,0.0329	-1754.24
0.9903,0.0097	-1752.10
0.9952,0.0048	-1741.90
0.9705,0.0295	-1767.75
0.9878,0.0122	-1752.13
0.9979,0.0021	-1741.37
0.9664,0.0336	-1754.34
0.9923,0.0077	-1761.90
0.9943,0.0057	-1742.07
0.9772,0.0228	-1756.71
0.9906,0.0094	-1752.11
0.9982,0.0018	-1741.31
0.9643,0.0357	-1757.93
0.9913,0.0087	-1756.87
0.9935,0.0065	-1742.22
0.9800,0.0200	-1748.78
0.9933,0.0067	-1752.26
0.9982,0.0018	-1747.64
0.9570,0.0430	-1768.14
0.9911,0.0089	-1742.69
0.9935,0.0065	-1742.23
0.9804,0.0196	-1760.46
0.9940,0.0060	-1742.14
0.9985,0.0015	-1741.27
0.9533,0.0467	-1768.39
0.9910,0.0090	-1747.42
0.9941,0.0059	-1757.48
0.9745,0.0255	-1760.56
0.9937,0.0063	-1747.25
0.9983,0.0017	-1741.30
0.9510,0.0490	-1759.67
0.9886,0.0114	-1743.18
0.9952,0.0048	-1741.90
0.9727,0.0273	-1753.49
0.9939,0.0061	-1742.15
0.9983,0.0017	-1741.29
0.9465,0.0535	-1780.43
0.9880,0.0120	-1747.72
0.9946,0.0054	-1742.01
0.9691,0.0309	-1760.85
0.9941,0.0059	-1747.24
0.9983,0.0017	-1747.67
0.9494,0.0506	-1777.49
0.9901,0.0099	-1752.10
0.9946,0.0054	-1742.01
0.9718,0.0282	-1764.22
0.9932,0.0068	-1742.29
0.9976,0.0024	-1741.43
0.9523,0.0477	-1759.48
0.9898,0.0102	-1756.68
0.9949,0.0051	-1747.23
0.9719,0.0281	-1757.14
0.9934,0.0066	-1757.28
0.9979,0.0021	-1741.36
0.9512,0.0488	-1771.51
0.9889,0.0111	-1747.62
0.9945,0.0055	-1742.03
0.9595,0.0405	-1764.84
0.9940,0.0060	-1742.12
0.9982,0.0018	-1741.31
0.9489,0.0511	-1768.73
0.9908,0.0092	-1747.44
0.9942,0.0058	-1742.10
0.9576,0.0424	-1764.99
0.9939,0.0061	-1752.33
0.9982,0.0018	-1741.31
0.9450,0.0550	-1786.14
0.9921,0.0079	-1747.34
0.9932,0.0068	-1742.29
0.9476,0.0524	-1768.84
0.9947,0.0053	-1747.23
0.9985,0.0015	-1747.74
0.9497,0.0503	-1783.36
0.9931,0.0069	-1747.28
0.9937,0.0063	-1742.19
0.9474,0.0526	-1771.75
0.9954,0.0046	-1741.87
0.9982,0.0018	-1741.31
0.9544,0.0456	-1774.39
0.9939,0.0061	-1742.15
0.9937,0.0063	-1752.31
0.9463,0.0537	-1783.30
0.9947,0.0053	-1742.00
0.9984,0.0016	-1747.71
0.9484,0.0516	-1762.95
0.9952,0.0048	-1741.89
0.9940,0.0060	-1742.13
0.9423,0.0577	-1772.13
0.9944,0.0056	-1742.05
0.9976,0.0024	-1741.43
0.9488,0.0512	-1768.74
0.9953,0.0047	-1741.88
0.9941,0.0059	-1742.11
0.9475,0.0525	-1763.07
0.9945,0.0055	-1752.42
0.9978,0.0022	-1741.38
0.9413,0.0587	-1772.21
0.9943,0.0057	-1752.39
0.9947,0.0053	-1742.00
0.9519,0.0481	-1771.48
0.9951,0.0049	-1757.87
0.9980,0.0020	-1741.36
0.9552,0.0448	-1768.26
0.9934,0.0066	-1752.28
0.9954,0.0046	-1757.98
0.9473,0.0527	-1771.76
0.9946,0.0054	-1752.44
0.9980,0.0020	-1741.36
0.9594,0.0406	-1761.69
0.9925,0.0075	-1747.31
0.9957,0.0043	-1741.80
0.9429,0.0571	-1780.50
0.9944,0.0056	-1742.04
0.9976,0.0024	-1741.43
0.9584,0.0416	-1777.48
0.9920,0.0080	-1742.52
0.9950,0.0050	-1757.82
0.9447,0.0553	-1766.26
0.9952,0.0048	-1747.23
0.9978,0.0022	-1741.39
0.9575,0.0425	-1771.23
0.9911,0.0089	-1742.70
0.9937,0.0063	-1747.25
0.9478,0.0522	-1777.52
0.9967,0.0033	-1741.60
0.9983,0.0017	-1741.29
0.9545,0.0455	-1768.31
0.9921,0.0079	-1757.00
0.9935,0.0065	-1742.22
0.9459,0.0541	-1783.30
0.9963,0.0037	-1741.68
0.9980,0.0020	-1741.36
0.9553,0.0447	-1771.31
0.9937,0.0063	-1742.18
0.9928,0.0072	-1742.37
0.9400,0.0600	-1777.83
0.9967,0.0033	-1741.60
0.9980,0.0020	-1741.36
0.9448,0.0552	-1757.74
0.9932,0.0068	-1742.28
0.9924,0.0076	-1752.19
0.9472,0.0528	-1777.54
0.9967,0.0033	-1741.60
0.9986,0.0014	-1741.24
0.9478,0.0522	-1777.52
0.9939,0.0061	-1742.15
0.9937,0.0063	-1742.19
0.9505,0.0495	-1771.55
0.9965,0.0035	-1741.64
0.9984,0.0016	-1741.28
0.9365,0.0635	-1775.33
0.9931,0.0069	-1747.28
0.9943,0.0057	-1752.40
0.9540,0.0460	-1762.28
0.9958,0.0042	-1752.73
0.9985,0.0015	-1741.25
0.9380,0.0620	-1761.64
0.9923,0.0077	-1757.04
0.9941,0.0059	-1747.24
0.9598,0.0402	-1755.31
0.9958,0.0042	-1741.79
0.9987,0.0013	-1741.22
0.9170,0.0830	-1784.41
0.9919,0.0081	-1742.54
0.9950,0.0050	-1757.81
0.9589,0.0411	-1764.89
0.9958,0.0042	-1741.78
0.9987,0.0013	-1741.21
0.9306,0.0694	-1775.82
0.9908,0.0092	-1747.44
0.9953,0.0047	-1741.88
0.9567,0.0433	-1780.55
0.9963,0.0037	-1741.69
0.9987,0.0013	-1747.86
0.9438,0.0562	-1774.83
0.9920,0.0080	-1742.53
0.9954,0.0046	-1741.85
0.9613,0.0387	-1758.29
0.9957,0.0043	-1758.14
0.9989,0.0011	-1741.18
0.9547,0.0453	-1768.29
0.9917,0.0083	-1742.57
0.9958,0.0042	-1747.25
0.9686,0.0314	-1760.89
0.9951,0.0049	-1741.91
0.9990,0.0010	-1741.17
0.9574,0.0426	-1761.90
0.9925,0.0075	-1747.31
0.9957,0.0043	-1741.80
0.9652,0.0348	-1767.79
0.9946,0.0054	-1752.44
0.9988,0.0012	-1747.95
0.9574,0.0426	-1771.23
0.9944,0.0056	-1747.23
0.9952,0.0048	-1747.23
0.9619,0.0381	-1764.67
0.9944,0.0056	-1747.23
0.9992,0.0008	-1748.22
0.9476,0.0524	-1771.74
0.9943,0.0057	-1742.08
0.9955,0.0045	-1747.24
0.9678,0.0322	-1764.35
0.9933,0.0067	-1757.27
0.9993,0.0007	-1741.09
0.9443,0.0557	-1769.14
0.9938,0.0062	-1752.32
0.9951,0.0049	-1747.23
0.9723,0.0277	-1760.66
0.9933,0.0067	-1742.27
0.9994,0.0006	-1741.08
0.9556,0.0444	-1771.30
0.9949,0.0051	-1747.23
0.9947,0.0053	-1747.23
0.9750,0.0250	-1764.20
0.9932,0.0068	-1747.27
0.9995,0.0005	-1741.06
0.9550,0.0450	-1771.33
0.9946,0.0054	-1742.02
0.9960,0.0040	-1741.74
0.9795,0.0205	-1764.32
0.9953,0.0047	-1747.23
0.9995,0.0005	-1741.07
0.9496,0.0504	-1777.48
0.9953,0.0047	-1747.23
0.9953,0.0047	-1747.23
0.9817,0.0183	-1748.53
0.9952,0.0048	-1741.90
0.9994,0.0006	-1741.08
0.9529,0.0471	-1765.41
0.9965,0.0035	-1752.96
0.9968,0.0032	-1747.32
0.9776,0.0224	-1749.14
0.9951,0.0049	-1747.23
0.9995,0.0005	-1741.07
0.9500,0.0500	-1774.53
0.9967,0.0033	-1741.60
0.9965,0.0035	-1741.65
0.9806,0.0194	-1760.46
0.9948,0.0052	-1741.97
0.9995,0.0005	-1741.06
0.9542,0.0458	-1774.40
0.9961,0.0039	-1741.72
0.9972,0.0028	-1741.52
0.9778,0.0222	-1752.89
0.9944,0.0056	-1742.06
0.9994,0.0006	-1741.08
0.9507,0.0493	-1759.70
0.9955,0.0045	-1752.64
0.9971,0.0029	-1747.36
0.9806,0.0194	-1760.46
0.9942,0.0058	-1742.08
0.9995,0.0005	-1741.06
0.9542,0.0458	-1789.58
0.9957,0.0043	-1741.80
0.9976,0.0024	-1753.49
0.9787,0.0213	-1756.62
0.9952,0.0048	-1741.90
0.9995,0.0005	-1741.06
0.9527,0.0473	-1774.44
0.9953,0.0047	-1741.88
0.9979,0.0021	-1741.37
0.9797,0.0203	-1760.45
0.9963,0.0037	-1741.69
0.9995,0.0005	-1741.07
0.9563,0.0437	-1758.92
0.9958,0.0042	-1747.25
0.9980,0.0020	-1741.36
0.9819,0.0181	-1756.49
0.9962,0.0038	-1741.71
0.9995,0.0005	-1741.07
0.9583,0.0417	-1755.54
0.9967,0.0033	-1741.61
0.9982,0.0018	-1741.31
0.9785,0.0215	-1752.82
0.9969,0.0031	-1741.57
0.9995,0.0005	-1741.06
0.9445,0.0555	-1774.80
0.9966,0.0034	-1741.63
0.9979,0.0021	-1741.38
0.9815,0.0185	-1752.53
0.9967,0.0033	-1741.60
0.9995,0.0005	-1741.07
0.9486,0.0514	-1760.01
0.9968,0.0032	-1741.58
0.9981,0.0019	-1741.33
0.9811,0.0189	-1756.52
0.9969,0.0031	-1741.57
0.9994,0.0006	-1741.09
0.9590,0.0410	-1768.03
0.9974,0.0026	-1753.38
0.9983,0.0017	-1741.30
0.9787,0.0213	-1756.63
0.9976,0.0024	-1741.42
0.9995,0.0005	-1741.06
0.9529,0.0471	-1762.40
0.9977,0.0023	-1741.41
0.9979,0.0021	-1741.38
0.9792,0.0208	-1752.75
0.9976,0.0024	-1741.43
0.9995,0.0005	-1741.07
0.9561,0.0439	-1768.20
0.9976,0.0024	-1741.43
0.9972,0.0028	-1741.51
0.9846,0.0154	-1756.45
0.9979,0.0021	-1741.38
0.9995,0.0005	-1741.07
0.9587,0.0413	-1755.48
0.9977,0.0023	-1741.40
0.9967,0.0033	-1741.61
0.9838,0.0162	-1768.78
0.9979,0.0021	-1741.37
0.9995,0.0005	-1741.07
0.9540,0.0460	-1765.31
0.9974,0.0026	-1747.42
0.9965,0.0035	-1741.65
0.9875,0.0125	-1747.77
0.9981,0.0019	-1747.60
0.9995,0.0005	-1741.06
0.9550,0.0450	-1774.38
0.9979,0.0021	-1741.38
0.9967,0.0033	-1747.32
0.9878,0.0122	-1752.13
0.9981,0.0019	-1741.34
0.9996,0.0004	-1741.05
0.9548,0.0452	-1774.38
0.9981,0.0019	-1741.33
0.9964,0.0036	-1741.67
0.9892,0.0108	-1752.10
0.9984,0.0016	-1741.28
0.9996,0.0004	-1741.04
0.9532,0.0468	-1774.42
0.9980,0.0020	-1741.36
0.9946,0.0054	-1742.02
0.9887,0.0113	-1752.11
0.9988,0.0012	-1741.20
0.9996,0.0004	-1741.04
0.9571,0.0429	-1765.03
0.9980,0.0020	-1741.35
0.9937,0.0063	-1742.19
0.9877,0.0123	-1756.52
0.9985,0.0015	-1741.25
0.9996,0.0004	-1741.04
0.9634,0.0366	-1758.03
0.9983,0.0017	-1741.30
0.9936,0.0064	-1742.22
0.9903,0.0097	-1756.73
0.9986,0.0014	-1741.24
0.9996,0.0004	-1741.04
0.9661,0.0339	-1771.12
0.9983,0.0017	-1747.69
0.9944,0.0056	-1742.06
0.9910,0.0090	-1747.42
0.9982,0.0018	-1741.32
0.9995,0.0005	-1741.05
0.9670,0.0330	-1750.86
0.9985,0.0015	-1741.27
0.9940,0.0060	-1742.13
0.9860,0.0140	-1756.46
0.9983,0.0017	-1741.30
0.9994,0.0006	-1741.07
0.9641,0.0359	-1764.53
0.9987,0.0013	-1741.21
0.9950,0.0050	-1741.94
0.9831,0.0169	-1752.40
0.9984,0.0016	-1747.73
0.9993,0.0007	-1741.11
0.9616,0.0384	-1780.79
0.9989,0.0011	-1741.19
0.9944,0.0056	-1752.42
0.9817,0.0183	-1756.50
0.9983,0.0017	-1747.65
0.9992,0.0008	-1741.11
0.9536,0.0464	-1780.46
0.9990,0.0010	-1741.16
0.9942,0.0058	-1747.24
0.9772,0.0228	-1752.96
0.9983,0.0017	-1741.30
0.9993,0.0007	-1741.11
0.9543,0.0457	-1780.47
0.9986,0.0014	-1741.23
0.9941,0.0059	-1742.12
0.9799,0.0201	-1764.34
0.9987,0.0013	-1741.23
0.9991,0.0009	-1741.15
0.9628,0.0372	-1764.61
0.9982,0.0018	-1741.32
0.9948,0.0052	-1741.97
0.9775,0.0225	-1752.92
0.9987,0.0013	-1747.86
0.9992,0.0008	-1741.12
0.9591,0.0409	-1758.56
0.9980,0.0020	-1747.56
0.9960,0.0040	-1752.77
0.9764,0.0236	-1749.33
0.9990,0.0010	-1741.17
0.9991,0.0009	-1741.14
0.9631,0.0369	-1764.60
0.9981,0.0019	-1741.33
0.9950,0.0050	-1741.93
0.9775,0.0225	-1764.24
0.9987,0.0013	-1747.86
0.9988,0.0012	-1741.20
0.9708,0.0292	-1757.23
0.9981,0.0019	-1741.33
0.9947,0.0053	-1757.71
0.9825,0.0175	-1756.47
0.9986,0.0014	-1741.23
0.9989,0.0011	-1741.18
0.9728,0.0272	-1757.06
0.9985,0.0015	-1741.25
0.9943,0.0057	-1742.08
0.9826,0.0174	-1748.40
0.9990,0.0010	-1741.16
0.9987,0.0013	-1747.85
0.9737,0.0263	-1753.37
0.9983,0.0017	-1741.30
0.9948,0.0052	-1741.97
0.9837,0.0163	-1752.35
0.9987,0.0013	-1741.23
0.9984,0.0016	-1741.28
0.9627,0.0373	-1761.37
0.9981,0.0019	-1741.34
0.9952,0.0048	-1747.23
0.9835,0.0165	-1756.45
0.9984,0.0016	-1741.27
0.9982,0.0018	-1741.32
0.9657,0.0343	-1764.45
0.9978,0.0022	-1741.39
0.9958,0.0042	-1741.78
0.9823,0.0177	-1748.45
0.9985,0.0015	-1741.25
0.9982,0.0018	-1741.31
0.9690,0.0310	-1767.74
0.9980,0.0020	-1741.36
0.9956,0.0044	-1747.24
0.9833,0.0167	-1748.30
0.9987,0.0013	-1741.22
0.9981,0.0019	-1747.61
0.9718,0.0282	-1764.22
0.9979,0.0021	-1741.38
0.9954,0.0046	-1741.86
0.9792,0.0208	-1764.30
0.9987,0.0013	-1741.21
0.9978,0.0022	-1741.40
0.9660,0.0340	-1761.08
0.9973,0.0027	-1753.30
0.9954,0.0046	-1741.86
0.9798,0.0202	-1748.80
0.9988,0.0012	-1741.20
0.9972,0.0028	-1741.51
0.9655,0.0345	-1764.46
0.9977,0.0023	-1747.48
0.9957,0.0043	-1741.81
0.9819,0.0181	-1748.49
0.9987,0.0013	-1754.54
0.9963,0.0037	-1741.68
0.9644,0.0356	-1751.32
0.9977,0.0023	-1747.49
0.9958,0.0042	-1747.25
0.9873,0.0127	-1756.50
0.9987,0.0013	-1747.86
0.9951,0.0049	-1741.91
0.9559,0.0441	-1777.44
0.9972,0.0028	-1741.51
0.9948,0.0052	-1741.98
0.9906,0.0094	-1747.45
0.9985,0.0015	-1741.25
0.9954,0.0046	-1741.86
0.9503,0.0497	-1771.57
0.9969,0.0031	-1741.57
0.9940,0.0060	-1747.24
0.9903,0.0097	-1747.48
0.9988,0.0012	-1741.19
0.9947,0.0053	-1742.00
0.9475,0.0525	-1780.42
0.9966,0.0034	-1752.98
0.9934,0.0066	-1747.26
0.9903,0.0097	-1752.11
0.9988,0.0012	-1741.21
0.9941,0.0059	-1742.12
0.9488,0.0512	-1771.66
0.9975,0.0025	-1741.46
0.9945,0.0055	-1742.04
0.9889,0.0111	-1756.60
0.9987,0.0013	-1741.21
0.9948,0.0052	-1747.23
0.9541,0.0459	-1765.30
0.9977,0.0023	-1741.40
0.9942,0.0058	-1742.08
0.9873,0.0127	-1743.44
0.9988,0.0012	-1741.20
0.9940,0.0060	-1752.35
0.9591,0.0409	-1761.72
0.9975,0.0025	-1741.45
0.9947,0.0053	-1742.00
0.9876,0.0124	-1752.14
0.9988,0.0012	-1747.90
0.9937,0.0063	-1742.18
0.9511,0.0489	-1765.58
0.9980,0.0020	-1741.35
0.9947,0.0053	-1747.23
0.9879,0.0121	-1752.13
0.9989,0.0011	-1741.19
0.9936,0.0064	-1742.22
0.9418,0.0582	-1777.74
0.9980,0.0020	-1747.56
0.9925,0.0075	-1747.31
0.9888,0.0112	-1747.63
0.9988,0.0012	-1741.21
0.9938,0.0062	-1742.17
0.9486,0.0514	-1783.33
0.9975,0.0025	-1747.44
0.9925,0.0075	-1742.42
0.9902,0.0098	-1742.87
0.9989,0.0011	-1741.18
0.9957,0.0043	-1741.80
0.9542,0.0458	-1768.33
0.9976,0.0024	-1747.46
0.9912,0.0088	-1752.13
0.9890,0.0110	-1747.61
0.9986,0.0014	-1741.25
0.9959,0.0041	-1741.76
0.9438,0.0562	-1763.54
0.9969,0.0031	-1741.56
0.9929,0.0071	-1742.35
0.9893,0.0107	-1747.57
0.9981,0.0019	-1741.32
0.9956,0.0044	-1747.24
0.9496,0.0504	-1765.74
0.9966,0.0034	-1741.63
0.9913,0.0087	-1747.39
0.9896,0.0104	-1752.10
0.9980,0.0020	-1741.35
0.9953,0.0047	-1741.88
0.9616,0.0384	-1761.47
0.9959,0.0041	-1747.26
0.9920,0.0080	-1742.52
0.9874,0.0126	-1756.51
0.9977,0.0023	-1741.42
0.9958,0.0042	-1747.25
0.9633,0.0367	-1767.85
0.9960,0.0040	-1741.74
0.9900,0.0100	-1747.50
0.9878,0.0122	-1756.53
0.9979,0.0021	-1741.37
0.9953,0.0047	-1741.88
0.9640,0.0360	-1774.40
0.9958,0.0042	-1747.25
0.9906,0.0094	-1742.80
0.9866,0.0134	-1743.58
0.9978,0.0022	-1741.39
0.9941,0.0059	-1742.12
0.9587,0.0413	-1755.47
0.9967,0.0033	-1741.61
0.9922,0.0078	-1752.17
0.9840,0.0160	-1764.68
0.9977,0.0023	-1741.42
0.9944,0.0056	-1747.23
0.9489,0.0511	-1771.66
0.9967,0.0033	-1741.61
0.9921,0.0079	-1742.50
0.9864,0.0136	-1747.90
0.9974,0.0026	-1741.47
0.9946,0.0054	-1742.01
0.9533,0.0467	-1771.41
0.9976,0.0024	-1741.44
0.9937,0.0063	-1742.20
0.9875,0.0125	-1756.51
0.9973,0.0027	-1741.48
0.9939,0.0061	-1742.15
0.9526,0.0474	-1777.44
0.9972,0.0028	-1741.51
0.9948,0.0052	-1741.98
0.9874,0.0126	-1747.79
0.9972,0.0028	-1741.51
0.9953,0.0047	-1741.87
0.9523,0.0477	-1780.44
0.9965,0.0035	-1747.30
0.9948,0.0052	-1741.97
0.9878,0.0122	-1752.13
0.9976,0.0024	-1753.49
0.9951,0.0049	-1752.54
0.9593,0.0407	-1761.70
0.9963,0.0037	-1741.68
0.9945,0.0055	-1742.03
0.9863,0.0137	-1756.47
0.9981,0.0019	-1741.33
0.9942,0.0058	-1742.09
0.9609,0.0391	-1761.53
0.9962,0.0038	-1741.70
0.9945,0.0055	-1742.03
0.9863,0.0137	-1743.63
0.9981,0.0019	-1741.33
0.9945,0.0055	-1747.23
0.9549,0.0451	-1771.33
0.9962,0.0038	-1741.70
0.9943,0.0057	-1742.07
0.9852,0.0148	-1764.85
0.9978,0.0022	-1741.40
0.9955,0.0045	-1741.83
0.9563,0.0437	-1771.27
0.9951,0.0049	-1747.23
0.9917,0.0083	-1756.93
0.9861,0.0139	-1752.20
0.9980,0.0020	-1741.35
0.9957,0.0043	-1741.79
0.9636,0.0364	-1754.73
0.9954,0.0046	-1763.40
0.9900,0.0100	-1747.51
0.9855,0.0145	-1752.23
0.9980,0.0020	-1741.35
0.9962,0.0038	-1741.70
0.9620,0.0380	-1758.20
0.9955,0.0045	-1747.24
0.9922,0.0078	-1747.33
0.9838,0.0162	-1748.23
0.9974,0.0026	-1753.36
0.9969,0.0031	-1741.57
0.9633,0.0367	-1758.05
0.9958,0.0042	-1741.77
0.9916,0.0084	-1756.91
0.9838,0.0162	-1748.24
0.9978,0.0022	-1741.39
0.9963,0.0037	-1741.68
0.9685,0.0315	-1774.60
0.9955,0.0045	-1752.63
0.9923,0.0077	-1742.46
0.9810,0.0190	-1748.63
0.9979,0.0021	-1741.37
0.9963,0.0037	-1741.68
0.9637,0.0363	-1774.39
0.9957,0.0043	-1741.80
0.9929,0.0071	-1747.29
0.9788,0.0212	-1756.62
0.9974,0.0026	-1759.32
0.9967,0.0033	-1747.32
0.9543,0.0457	-1768.32
0.9962,0.0038	-1747.27
0.9927,0.0073	-1742.39
0.9744,0.0256	-1756.92
0.9973,0.0027	-1741.50
0.9976,0.0024	-1747.46
0.9561,0.0439	-1771.28
0.9966,0.0034	-1741.63
0.9929,0.0071	-1747.28
0.9746,0.0254	-1764.20
0.9967,0.0033	-1747.31
0.9971,0.0029	-1747.36
0.9622,0.0378	-1761.42
0.9964,0.0036	-1741.67
0.9936,0.0064	-1757.35
0.9741,0.0259	-1756.94
0.9967,0.0033	-1741.61
0.9969,0.0031	-1758.88
0.9709,0.0291	-1764.24
0.9971,0.0029	-1741.53
0.9938,0.0062	-1742.17
0.9711,0.0289	-1760.73
0.9970,0.0030	-1741.55
0.9970,0.0030	-1747.36
0.9756,0.0244	-1767.89
0.9962,0.0038	-1741.70
0.9936,0.0064	-1742.22
0.9750,0.0250	-1778.86
0.9975,0.0025	-1741.45
0.9966,0.0034	-1741.62
0.9770,0.0230	-1749.24
0.9965,0.0035	-1741.65
0.9911,0.0089	-1756.83
0.9681,0.0319	-1764.33
0.9977,0.0023	-1741.41
0.9969,0.0031	-1741.58
0.9786,0.0214	-1768.10
0.9972,0.0028	-1741.52
0.9878,0.0122	-1756.53
0.9648,0.0352	-1747.93
0.9976,0.0024	-1741.44
0.9969,0.0031	-1747.33
0.9698,0.0302	-1750.39
0.9978,0.0022	-1741.38
0.9882,0.0118	-1747.69
0.9684,0.0316	-1754.05
0.9980,0.0020	-1747.57
0.9971,0.0029	-1741.54
0.9652,0.0348	-1764.47
0.9976,0.0024	-1741.44
0.9860,0.0140	-1760.71
0.9706,0.0294	-1750.25
0.9981,0.0019	-1741.34
0.9965,0.0035	-1741.64
0.9546,0.0454	-1759.16
0.9980,0.0020	-1741.35
0.9872,0.0128	-1752.15
0.9742,0.0258	-1767.83
0.9977,0.0023	-1741.41
0.9952,0.0048	-1741.89
0.9628,0.0372	-1767.87
0.9980,0.0020	-1741.35
0.9850,0.0150	-1764.82
0.9735,0.0265	-1753.39
0.9978,0.0022	-1741.39
0.9948,0.0052	-1741.98
0.9572,0.0428	-1780.56
0.9975,0.0025	-1741.45
0.9875,0.0125	-1769.63
0.9728,0.0272	-1757.05
0.9984,0.0016	-1741.28
0.9937,0.0063	-1742.20
0.9659,0.0341	-1761.09
0.9973,0.0027	-1741.49
0.9849,0.0151	-1756.45
0.9750,0.0250	-1749.54
0.9986,0.0014	-1741.24
0.9923,0.0077	-1742.46
0.9663,0.0337	-1750.99
0.9973,0.0027	-1747.39
0.9794,0.0206	-1748.86
0.9722,0.0278	-1753.56
0.9988,0.0012	-1747.91
0.9928,0.0072	-1747.29
0.9592,0.0408	-1774.34
0.9978,0.0022	-1741.39
0.9842,0.0158	-1748.18
0.9689,0.0311	-1760.86
0.9988,0.0012	-1741.20
0.9900,0.0100	-1742.91
0.9563,0.0437	-1758.93
0.9978,0.0022	-1747.51
0.9798,0.0202	-1748.81
0.9710,0.0290	-1774.78
0.9988,0.0012	-1741.19
0.9899,0.0101	-1742.92
0.9514,0.0486	-1771.51
0.9976,0.0024	-1741.43
0.9795,0.0205	-1760.45
0.9708,0.0292	-1750.22
0.9988,0.0012	-1741.20
0.9900,0.0100	-1761.30
0.9398,0.0602	-1777.84
0.9976,0.0024	-1741.44
0.9769,0.0231	-1760.48
0.9698,0.0302	-1764.27
0.9986,0.0014	-1747.79
0.9910,0.0090	-1742.72
0.9524,0.0476	-1786.43
0.9980,0.0020	-1747.56
0.9803,0.0197	-1772.17
0.9643,0.0357	-1757.93
0.9988,0.0012	-1747.91
0.9899,0.0101	-1742.94
0.9517,0.0483	-1771.49
0.9980,0.0020	-1747.56
0.9766,0.0234	-1753.02
0.9729,0.0271	-1767.79
0.9989,0.0011	-1748.00
0.9914,0.0086	-1752.13
0.9545,0.0455	-1762.22
0.9978,0.0022	-1741.40
0.9779,0.0221	-1745.31
0.9740,0.0260	-1760.57
0.9990,0.0010	-1748.06
0.9929,0.0071	-1747.29
0.9583,0.0417	-1771.21
0.9980,0.0020	-1747.56
0.9772,0.0228	-1756.72
0.9755,0.0245	-1760.52
0.9990,0.0010	-1741.17
0.9937,0.0063	-1747.25
0.9697,0.0303	-1767.74
0.9980,0.0020	-1747.55
0.9743,0.0257	-1753.29
0.9728,0.0272	-1757.05
0.9989,0.0011	-1741.17
0.9930,0.0070	-1757.20
0.9672,0.0328	-1760.99
0.9981,0.0019	-1753.90
0.9706,0.0294	-1760.75
0.9748,0.0252	-1756.89
0.9989,0.0011	-1741.17
0.9926,0.0074	-1742.41
0.9677,0.0323	-1767.75
0.9977,0.0023	-1741.41
0.9721,0.0279	-1760.67
0.9749,0.0251	-1745.91
0.9988,0.0012	-1741.21
0.9936,0.0064	-1747.26
0.9711,0.0289	-1764.24
0.9974,0.0026	-1747.42
0.9683,0.0317	-1764.32
0.9738,0.0262	-1764.20
0.9989,0.0011	-1741.18
0.9943,0.0057	-1757.56
0.9672,0.0328	-1777.91
0.9976,0.0024	-1741.43
0.9735,0.0265	-1764.20
0.9746,0.0254	-1756.90
0.9989,0.0011	-1741.19
0.9949,0.0051	-1752.50
0.9713,0.0287	-1771.28
0.9982,0.0018	-1741.32
0.9743,0.0257	-1760.56
0.9767,0.0233	-1756.75
0.9984,0.0016	-1741.28
0.9957,0.0043	-1741.80
0.9645,0.0355	-1771.11
0.9987,0.0013	-1741.22
0.9676,0.0324	-1760.96
0.9761,0.0239	-1760.50
0.9982,0.0018	-1741.32
0.9969,0.0031	-1747.34
0.9674,0.0326	-1757.58
0.9988,0.0012	-1741.20
0.9689,0.0311	-1760.86
0.9752,0.0248	-1764.20
0.9984,0.0016	-1741.28
0.9962,0.0038	-1747.27
0.9615,0.0385	-1761.48
0.9990,0.0010	-1748.05
0.9655,0.0345	-1757.79
0.9762,0.0238	-1756.79
0.9990,0.0010	-1741.17
0.9960,0.0040	-1747.26
0.9596,0.0404	-1774.34
0.9993,0.0007	-1748.33
0.9694,0.0306	-1750.46
0.9711,0.0289	-1760.72
0.9991,0.0009	-1741.14
0.9964,0.0036	-1741.67
0.9607,0.0393	-1767.95
0.9994,0.0006	-1741.09
0.9653,0.0347	-1777.77
0.9711,0.0289	-1757.21
0.9988,0.0012	-1741.19
0.9955,0.0045	-1741.85
0.9606,0.0394	-1761.57
0.9994,0.0006	-1741.08
0.9668,0.0332	-1767.76
0.9728,0.0272	-1760.63
0.9986,0.0014	-1741.23
0.9950,0.0050	-1747.23
0.9624,0.0376	-1764.64
0.9994,0.0006	-1741.07
0.9561,0.0439	-1765.12
0.9678,0.0322	-1760.94
0.9983,0.0017	-1741.30
0.9960,0.0040	-1758.31
0.9705,0.0295	-1746.78
0.9995,0.0005	-1741.06
0.9531,0.0469	-1768.40
0.9704,0.0296	-1764.25
0.9983,0.0017	-1747.65
0.9960,0.0040	-1741.74
0.9691,0.0309	-1764.29
0.9995,0.0005	-1741.07
0.9543,0.0457	-1762.24
0.9699,0.0301	-1767.74
0.9983,0.0017	-1741.30
0.9958,0.0042	-1741.78
0.9668,0.0332	-1764.39
0.9993,0.0007	-1741.10
0.9564,0.0436	-1771.27
0.9742,0.0258	-1756.94
0.9980,0.0020	-1741.35
0.9963,0.0037	-1752.87
0.9651,0.0349	-1764.48
0.9993,0.0007	-1741.09
0.9516,0.0484	-1774.47
0.9733,0.0267	-1746.23
0.9977,0.0023	-1747.48
0.9967,0.0033	-1741.60
0.9706,0.0294	-1774.74
0.9993,0.0007	-1741.11
0.9508,0.0492	-1789.31
0.9739,0.0261	-1753.34
0.9977,0.0023	-1747.49
0.9967,0.0033	-1741.60
0.9669,0.0331	-1761.01
0.9993,0.0007	-1741.10
0.9502,0.0498	-1780.42
0.9756,0.0244	-1764.20
0.9975,0.0025	-1741.44
0.9972,0.0028	-1753.27
0.9711,0.0289	-1767.75
0.9994,0.0006	-1741.08
0.9550,0.0450	-1774.38
0.9799,0.0201	-1760.45
0.9975,0.0025	-1747.45
0.9976,0.0024	-1741.44
0.9766,0.0234	-1767.95
0.9994,0.0006	-1748.47
0.9600,0.0400	-1777.52
0.9802,0.0198	-1752.65
0.9975,0.0025	-1747.44
0.9969,0.0031	-1741.57
0.9771,0.0229	-1756.72
0.9993,0.0007	-1748.33
0.9622,0.0378	-1764.65
0.9763,0.0237	-1756.78
0.9980,0.0020	-1747.57
0.9968,0.0032	-1747.33
0.9796,0.0204	-1752.71
0.9992,0.0008	-1741.12
0.9598,0.0402	-1758.47
0.9777,0.0223	-1756.69
0.9981,0.0019	-1741.32
0.9975,0.0025	-1741.46
0.9839,0.0161	-1760.56
0.9992,0.0008	-1741.11
0.9437,0.0563	-1772.02
0.9762,0.0238	-1760.50
0.9983,0.0017	-1741.30
0.9974,0.0026	-1741.46
0.9843,0.0157	-1752.31
0.9993,0.0007	-1741.11
0.9516,0.0484	-1777.45
0.9798,0.0202	-1756.57
0.9981,0.0019	-1741.33
0.9977,0.0023	-1753.56
0.9859,0.0141	-1743.72
0.9990,0.0010	-1741.16
0.9584,0.0416	-1764.93
0.9853,0.0147	-1760.66
0.9981,0.0019	-1741.33
0.9981,0.0019	-1747.60
0.9864,0.0136	-1752.19
0.9990,0.0010	-1748.05
0.9482,0.0518	-1771.70
0.9859,0.0141	-1743.71
0.9974,0.0026	-1753.37
0.9978,0.0022	-1741.38
0.9856,0.0144	-1760.68
0.9990,0.0010	-1741.16
0.9636,0.0364	-1761.29
0.9833,0.0167	-1744.22
0.9976,0.0024	-1741.43
0.9980,0.0020	-1741.35
0.9838,0.0162	-1760.56
0.9991,0.0009	-1741.14
0.9610,0.0390	-1764.73
0.9834,0.0166	-1756.46
0.9976,0.0024	-1741.43
0.9982,0.0018	-1741.32
0.9853,0.0147	-1752.25
0.9993,0.0007	-1741.11
0.9660,0.0340	-1767.77
0.9836,0.0164	-1748.27
0.9971,0.0029	-1741.52
0.9985,0.0015	-1741.26
0.9815,0.0185	-1764.44
0.9994,0.0006	-1741.09
0.9681,0.0319	-1760.92
0.9768,0.0232	-1753.00
0.9973,0.0027	-1741.49
0.9988,0.0012	-1741.20
0.9860,0.0140	-1752.21
0.9993,0.0007	-1741.11
0.9733,0.0267	-1757.01
0.9803,0.0197	-1744.82
0.9977,0.0023	-1741.42
0.9983,0.0017	-1741.29
0.9902,0.0098	-1752.10
0.9993,0.0007	-1741.11
0.9753,0.0247	-1745.82
0.9813,0.0187	-1748.58
0.9978,0.0022	-1741.38
0.9984,0.0016	-1741.27
0.9899,0.0101	-1742.93
0.9992,0.0008	-1741.13
0.9778,0.0222	-1752.89
0.9829,0.0171	-1748.35
0.9975,0.0025	-1741.46
0.9983,0.0017	-1741.30
0.9884,0.0116	-1747.68
0.9993,0.0007	-1741.11
0.9732,0.0268	-1757.02
0.9820,0.0180	-1756.49
0.9979,0.0021	-1747.52
0.9979,0.0021	-1747.55
0.9896,0.0104	-1747.55
0.9992,0.0008	-1741.12
0.9756,0.0244	-1760.51
0.9843,0.0157	-1744.02
0.9972,0.0028	-1741.51
0.9985,0.0015	-1741.25
0.9889,0.0111	-1756.59
0.9992,0.0008	-1741.13
0.9766,0.0234	-1756.76
0.9861,0.0139	-1756.46
0.9969,0.0031	-1747.34
0.9987,0.0013	-1741.21
0.9905,0.0095	-1756.76
0.9992,0.0008	-1741.12
0.9845,0.0155	-1748.15
0.9866,0.0134	-1752.18
0.9963,0.0037	-1741.69
0.9983,0.0017	-1741.30
0.9902,0.0098	-1747.49
0.9992,0.0008	-1741.11
0.9865,0.0135	-1765.06
0.9826,0.0174	-1752.44
0.9964,0.0036	-1741.67
0.9983,0.0017	-1741.30
0.9895,0.0105	-1743.01
0.9993,0.0007	-1741.11
0.9860,0.0140	-1747.95
0.9809,0.0191	-1756.52
0.9957,0.0043	-1741.80
0.9985,0.0015	-1741.25
0.9877,0.0123	-1747.75
0.9992,0.0008	-1741.13
0.9854,0.0146	-1748.03
0.9795,0.0205	-1752.71
0.9958,0.0042	-1741.77
0.9986,0.0014	-1741.25
0.9874,0.0126	-1756.50
0.9990,0.0010	-1741.17
0.9863,0.0137	-1752.19
0.9772,0.0228	-1752.95
0.9956,0.0044	-1741.82
0.9982,0.0018	-1741.31
0.9861,0.0139	-1747.94
0.9991,0.0009	-1741.13
0.9851,0.0149	-1752.26
0.9801,0.0199	-1752.66
0.9958,0.0042	-1741.78
0.9981,0.0019	-1741.33
0.9871,0.0129	-1756.49
0.9990,0.0010	-1741.15
0.9812,0.0188	-1760.47
0.9783,0.0217	-1756.65
0.9951,0.0049	-1741.91
0.9978,0.0022	-1741.39
0.9838,0.0162	-1760.56
0.9989,0.0011	-1748.00
0.9839,0.0161	-1748.22
0.9762,0.0238	-1756.78
0.9951,0.0049	-1747.23
0.9981,0.0019	-1753.82
0.9849,0.0151	-1748.10
0.9989,0.0011	-1741.18
0.9813,0.0187	-1752.55
0.9758,0.0242	-1753.11
0.9963,0.0037	-1747.28
0.9984,0.0016	-1741.28
0.9847,0.0153	-1760.62
0.9988,0.0012	-1741.21
0.9850,0.0150	-1752.26
0.9766,0.0234	-1756.76
0.9970,0.0030	-1741.54
0.9984,0.0016	-1741.27
0.9818,0.0182	-1744.54
0.9987,0.0013	-1741.23
0.9858,0.0142	-1760.69
0.9781,0.0219	-1752.86
0.9976,0.0024	-1741.42
0.9984,0.0016	-1741.27
0.9792,0.0208	-1768.16
0.9986,0.0014	-1741.23
0.9880,0.0120	-1747.72
0.9783,0.0217	-1745.22
0.9975,0.0025	-1747.44
0.9988,0.0012	-1741.19
0.9819,0.0181	-1764.48
0.9982,0.0018	-1741.31
0.9898,0.0102	-1742.95
0.9818,0.0182	-1768.46
0.9980,0.0020	-1741.35
0.9986,0.0014	-1741.24
0.9802,0.0198	-1756.55
0.9979,0.0021	-1741.38
0.9896,0.0104	-1752.10
0.9847,0.0153	-1752.28
0.9979,0.0021	-1741.37
0.9985,0.0015	-1741.26
0.9826,0.0174	-1748.41
0.9976,0.0024	-1741.43
0.9917,0.0083	-1747.36
0.9816,0.0184	-1748.54
0.9980,0.0020	-1741.36
0.9981,0.0019	-1741.33
0.9844,0.0156	-1752.30
0.9979,0.0021	-1741.38
0.9919,0.0081	-1742.53
0.9828,0.0172	-1756.47
0.9981,0.0019	-1741.33
0.9979,0.0021	-1741.38
0.9826,0.0174	-1748.40
0.9978,0.0022	-1741.39
0.9919,0.0081	-1742.54
0.9832,0.0168	-1756.46
0.9981,0.0019	-1741.33
0.9977,0.0023	-1741.41
0.9816,0.0184	-1748.55
0.9983,0.0017	-1741.29
0.9920,0.0080	-1747.34
0.9812,0.0188	-1756.51
0.9983,0.0017	-1741.29
0.9978,0.0022	-1741.38
0.9822,0.0178	-1752.47
0.9985,0.0015	-1741.26
0.9917,0.0083	-1742.59
0.9769,0.0231	-1749.25
0.9986,0.0014	-1741.24
0.9975,0.0025	-1741.45
0.9854,0.0146	-1760.66
0.9989,0.0011	-1741.18
0.9917,0.0083	-1747.36
0.9756,0.0244	-1756.83
0.9988,0.0012	-1741.21
0.9967,0.0033	-1741.60
0.9869,0.0131	-1747.84
0.9988,0.0012	-1741.19
0.9941,0.0059	-1742.12
0.9773,0.0227	-1745.42
0.9989,0.0011	-1741.17
0.9952,0.0048	-1741.90
0.9835,0.0165	-1756.45
0.9987,0.0013	-1741.22
0.9946,0.0054	-1742.02
0.9789,0.0211	-1764.29
0.9992,0.0008	-1741.12
0.9949,0.0051	-1741.96
0.9783,0.0217	-1756.65
0.9986,0.0014	-1747.80
0.9942,0.0058	-1752.38
0.9740,0.0260	-1775.07
0.9991,0.0009	-1741.14
0.9942,0.0058	-1752.38
0.9786,0.0214	-1764.28
0.9986,0.0014	-1741.24
0.9951,0.0049	-1752.55
0.9772,0.0228	-1756.72
0.9989,0.0011	-1741.17
0.9946,0.0054	-1752.44
0.9790,0.0210	-1768.14
0.9985,0.0015	-1741.25
0.9952,0.0048	-1752.57
0.9822,0.0178	-1756.48
0.9986,0.0014	-1741.23
0.9949,0.0051	-1741.95
0.9814,0.0186	-1756.50
0.9989,0.0011	-1741.19
0.9966,0.0034	-1741.63
0.9805,0.0195	-1760.46
0.9986,0.0014	-1741.24
0.9947,0.0053	-1742.00
0.9836,0.0164	-1748.26
0.9988,0.0012	-1741.20
0.9959,0.0041	-1741.77
0.9841,0.0159	-1748.20
0.9986,0.0014	-1741.25
0.9952,0.0048	-1741.91
0.9814,0.0186	-1756.50
0.9990,0.0010	-1741.16
0.9954,0.0046	-1747.24
0.9833,0.0167	-1748.31
0.9980,0.0020	-1741.36
0.9962,0.0038	-1752.83
0.9828,0.0172	-1760.51
0.9992,0.0008	-1741.12
0.9966,0.0034	-1741.62
0.9838,0.0162	-1752.34
0.9975,0.0025	-1741.45
0.9956,0.0044	-1747.24
0.9875,0.0125	-1743.41
0.9988,0.0012	-1741.19
0.9969,0.0031	-1747.34
0.9822,0.0178	-1748.46
0.9969,0.0031	-1741.56
0.9964,0.0036	-1741.66
0.9892,0.0108	-1752.10
0.9990,0.0010	-1741.15
0.9959,0.0041	-1741.76
0.9845,0.0155	-1764.76
0.9962,0.0038	-1741.70
0.9962,0.0038	-1752.83
0.9887,0.0113	-1743.17
0.9990,0.0010	-1741.16
0.9963,0.0037	-1752.86
0.9874,0.0126	-1747.78
0.9966,0.0034	-1747.30
0.9960,0.0040	-1741.74
0.9886,0.0114	-1752.11
0.9992,0.0008	-1741.12
0.9965,0.0035	-1747.30
0.9840,0.0160	-1748.21
0.9963,0.0037	-1747.28
0.9927,0.0073	-1742.39
0.9904,0.0096	-1747.47
0.9991,0.0009	-1748.16
0.9957,0.0043	-1741.81
0.9816,0.0184	-1744.56
0.9953,0.0047	-1741.88
0.9922,0.0078	-1742.49
0.9928,0.0072	-1752.22
0.9991,0.0009	-1741.14
0.9946,0.0054	-1742.02
0.9862,0.0138	-1747.93
0.9954,0.0046	-1747.24
0.9920,0.0080	-1747.34
0.9911,0.0089	-1747.41
0.9990,0.0010	-1741.17
0.9958,0.0042	-1747.25
0.9867,0.0133	-1747.86
0.9944,0.0056	-1742.05
0.9898,0.0102	-1747.53
0.9910,0.0090	-1756.82
0.9992,0.0008	-1748.30
0.9954,0.0046	-1747.24
0.9841,0.0159	-1752.32
0.9955,0.0045	-1741.84
0.9882,0.0118	-1747.69
0.9912,0.0088	-1742.67
0.9994,0.0006	-1741.09
0.9953,0.0047	-1747.23
0.9854,0.0146	-1756.45
0.9953,0.0047	-1741.87
0.9862,0.0138	-1747.93
0.9855,0.0145	-1743.79
0.9994,0.0006	-1741.08
0.9953,0.0047	-1747.23
0.9843,0.0157	-1752.31
0.9964,0.0036	-1747.29
0.9889,0.0111	-1756.60
0.9849,0.0151	-1756.45
0.9994,0.0006	-1741.08
0.9955,0.0045	-1747.24
0.9865,0.0135	-1747.89
0.9963,0.0037	-1741.67
0.9883,0.0117	-1756.55
0.9845,0.0155	-1748.15
0.9994,0.0006	-1741.07
0.9951,0.0049	-1763.16
0.9898,0.0102	-1747.52
0.9958,0.0042	-1758.17
0.9875,0.0125	-1752.14
0.9812,0.0188	-1744.65
0.9994,0.0006	-1748.50
0.9949,0.0051	-1757.77
0.9910,0.0090	-1742.71
0.9958,0.0042	-1741.79
0.9882,0.0118	-1752.12
0.9825,0.0175	-1752.44
0.9995,0.0005	-1741.07
0.9949,0.0051	-1741.96
0.9893,0.0107	-1743.04
0.9960,0.0040	-1741.73
0.9864,0.0136	-1747.90
0.9849,0.0151	-1760.63
0.9995,0.0005	-1741.06
0.9954,0.0046	-1741.85
0.9876,0.0124	-1747.76
0.9969,0.0031	-1747.34
0.9858,0.0142	-1756.46
0.9873,0.0127	-1743.44
0.9995,0.0005	-1741.06
0.9952,0.0048	-1741.89
0.9880,0.0120	-1760.94
0.9964,0.0036	-1752.91
0.9873,0.0127	-1747.80
0.9873,0.0127	-1743.45
0.9993,0.0007	-1741.09
0.9967,0.0033	-1741.61
0.9863,0.0137	-1747.92
0.9965,0.0035	-1747.30
0.9880,0.0120	-1747.72
0.9866,0.0134	-1747.87
0.9993,0.0007	-1741.11
0.9960,0.0040	-1747.26
0.9875,0.0125	-1752.14
0.9972,0.0028	-1741.51
0.9883,0.0117	-1747.68
0.9865,0.0135	-1752.18
0.9995,0.0005	-1741.06
0.9963,0.0037	-1747.28
0.9908,0.0092	-1742.76
0.9970,0.0030	-1747.36
0.9872,0.0128	-1752.15
0.9829,0.0171	-1748.37
0.9996,0.0004	-1741.05
0.9971,0.0029	-1741.53
0.9900,0.0100	-1752.10
0.9968,0.0032	-1741.59
0.9861,0.0139	-1747.94
0.9849,0.0151	-1748.09
0.9994,0.0006	-1741.08
0.9970,0.0030	-1758.95
0.9875,0.0125	-1756.51
0.9967,0.0033	-1741.60
0.9857,0.0143	-1743.77
0.9830,0.0170	-1760.52
0.9996,0.0004	-1741.05
0.9967,0.0033	-1747.32
0.9867,0.0133	-1765.10
0.9956,0.0044	-1741.82
0.9844,0.0156	-1768.88
0.9828,0.0172	-1752.42
0.9996,0.0004	-1741.04
0.9960,0.0040	-1752.79
0.9878,0.0122	-1752.13
0.9947,0.0053	-1747.23
0.9836,0.0164	-1748.26
0.9827,0.0173	-1744.36
0.9996,0.0004	-1741.04
0.9964,0.0036	-1747.29
0.9865,0.0135	-1756.48
0.9955,0.0045	-1741.84
0.9839,0.0161	-1752.34
0.9771,0.0229	-1764.23
0.9996,0.0004	-1741.04
0.9968,0.0032	-1741.59
0.9896,0.0104	-1765.78
0.9938,0.0062	-1752.33
0.9869,0.0131	-1765.13
0.9815,0.0185	-1764.45
0.9997,0.0003	-1741.03
0.9965,0.0035	-1741.64
0.9913,0.0087	-1742.65
0.9942,0.0058	-1752.38
0.9885,0.0115	-1752.11
0.9839,0.0161	-1756.45
0.9997,0.0003	-1741.02
0.9963,0.0037	-1747.28
0.9889,0.0111	-1747.62
0.9935,0.0065	-1752.29
0.9908,0.0092	-1747.43
0.9811,0.0189	-1748.62
0.9998,0.0002	-1741.01
0.9964,0.0036	-1747.28
0.9883,0.0117	-1760.99
0.9946,0.0054	-1747.23
0.9914,0.0086	-1747.39
0.9786,0.0214	-1752.81
0.9998,0.0002	-1741.00
0.9972,0.0028	-1741.51
0.9861,0.0139	-1756.46
0.9954,0.0046	-1747.23
0.9897,0.0103	-1752.10
0.9814,0.0186	-1744.61
0.9998,0.0002	-1741.00
0.9977,0.0023	-1741.41
0.9842,0.0158	-1748.18
0.9942,0.0058	-1742.09
0.9878,0.0122	-1756.52
0.9828,0.0172	-1756.47
0.9998,0.0002	-1741.00
0.9980,0.0020	-1741.36
0.9808,0.0192	-1768.32
0.9950,0.0050	-1752.52
0.9908,0.0092	-1756.79
0.9851,0.0149	-1752.26
0.9999,0.0001	-1740.99
0.9979,0.0021	-1741.38
0.9825,0.0175	-1756.47
0.9961,0.0039	-1741.72
0.9908,0.0092	-1747.43
0.9833,0.0167	-1744.23
0.9999,0.0001	-1740.99
0.9975,0.0025	-1747.45
0.9808,0.0192	-1760.46
0.9966,0.0034	-1741.63
0.9904,0.0096	-1756.74
0.9859,0.0141	-1752.21
0.9999,0.0001	-1740.99
0.9969,0.0031	-1741.56
0.9850,0.0150	-1756.45
0.9970,0.0030	-1741.55
0.9913,0.0087	-1747.39
0.9853,0.0147	-1748.04
0.9999,0.0001	-1740.98
0.9970,0.0030	-1741.56
0.9837,0.0163	-1752.35
0.9969,0.0031	-1741.57
0.9915,0.0085	-1752.13
0.9839,0.0161	-1756.45
0.9999,0.0001	-1740.98
0.9967,0.0033	-1741.60
0.9882,0.0118	-1743.27
0.9965,0.0035	-1747.30
0.9919,0.0081	-1747.35
0.9803,0.0197	-1748.73
0.9999,0.0001	-1740.98
0.9968,0.0032	-1741.58
0.9884,0.0116	-1743.23
0.9963,0.0037	-1747.28
0.9934,0.0066	-1752.28
0.9773,0.0227	-1764.23
0.9999,0.0001	-1740.98
0.9971,0.0029	-1741.53
0.9863,0.0137	-1752.19
0.9961,0.0039	-1741.73
0.9939,0.0061	-1747.24
0.9802,0.0198	-1760.45
0.9999,0.0001	-1740.98
0.9961,0.0039	-1741.72
0.9830,0.0170	-1752.41
0.9970,0.0030	-1741.54
0.9933,0.0067	-1742.26
0.9767,0.0233	-1756.75
0.9999,0.0001	-1740.98
0.9954,0.0046	-1741.86
0.9774,0.0226	-1749.17
0.9967,0.0033	-1741.60
0.9947,0.0053	-1741.99
0.9771,0.0229	-1756.72
0.9999,0.0001	-1740.98
0.9949,0.0051	-1747.23
0.9773,0.0227	-1749.19
0.9967,0.0033	-1741.60
0.9935,0.0065	-1747.26
0.9756,0.0244	-1767.89
0.9999,0.0001	-1740.98
0.9949,0.0051	-1747.23
0.9746,0.0254	-1767.84
0.9972,0.0028	-1747.39
0.9918,0.0082	-1747.35
0.9767,0.0233	-1749.28
0.9999,0.0001	-1740.98
0.9929,0.0071	-1747.28
0.9794,0.0206	-1748.87
0.9969,0.0031	-1753.13
0.9909,0.0091	-1752.12
0.9643,0.0357	-1767.82
1.0000,0.0000	-1740.97
0.9930,0.0070	-1752.24
0.9789,0.0211	-1752.77
0.9971,0.0029	-1741.53
0.9907,0.0093	-1742.77
0.9670,0.0330	-1761.01
0.9999,0.0001	-1740.98
0.9926,0.0074	-1742.40
0.9843,0.0157	-1756.45
0.9967,0.0033	-1741.61
0.9901,0.0099	-1756.71
0.9647,0.0353	-1757.88
1.0000,0.0000	-1740.98
0.9917,0.0083	-1742.58
0.9858,0.0142	-1764.95
0.9964,0.0036	-1747.29
0.9914,0.0086	-1752.13
0.9745,0.0255	-1764.20
1.0000,0.0000	-1740.98
0.9921,0.0079	-1747.33
0.9883,0.0117	-1756.55
0.9960,0.0040	-1752.78
0.9893,0.0107	-1756.63
0.9718,0.0282	-1753.61
1.0000,0.0000	-1740.97
0.9926,0.0074	-1742.40
0.9893,0.0107	-1747.58
0.9955,0.0045	-1747.24
0.9878,0.0122	-1747.74
0.9672,0.0328	-1764.37
1.0000,0.0000	-1740.98
0.9929,0.0071	-1752.22
0.9886,0.0114	-1743.19
0.9929,0.0071	-1752.22
0.9898,0.0102	-1747.53
0.9664,0.0336	-1767.77
1.0000,0.0000	-1740.97
0.9932,0.0068	-1747.27
0.9876,0.0124	-1752.14
0.9928,0.0072	-1747.29
0.9918,0.0082	-1742.56
0.9670,0.0330	-1767.76
1.0000,0.0000	-1740.98
0.9925,0.0075	-1752.19
0.9869,0.0131	-1747.84
0.9943,0.0057	-1742.07
0.9913,0.0087	-1742.66
0.9608,0.0392	-1755.14
0.9999,0.0001	-1740.98
0.9937,0.0063	-1742.19
0.9849,0.0151	-1756.45
0.9922,0.0078	-1742.48
0.9924,0.0076	-1747.31
0.9715,0.0285	-1760.70
1.0000,0.0000	-1740.97
0.9937,0.0063	-1747.25
0.9840,0.0160	-1752.33
0.9930,0.0070	-1757.18
0.9929,0.0071	-1742.34
0.9811,0.0189	-1764.41
1.0000,0.0000	-1740.98
0.9935,0.0065	-1742.23
0.9881,0.0119	-1756.54
0.9927,0.0073	-1747.30
0.9929,0.0071	-1742.34
0.9822,0.0178	-1748.46
1.0000,0.0000	-1740.98
0.9939,0.0061	-1742.15
0.9852,0.0148	-1743.86
0.9922,0.0078	-1747.33
0.9928,0.0072	-1747.29
0.9754,0.0246	-1764.20
1.0000,0.0000	-1740.98
0.9932,0.0068	-1742.28
0.9835,0.0165	-1752.37
0.9931,0.0069	-1742.31
0.9926,0.0074	-1742.41
0.9745,0.0255	-1756.91
1.0000,0.0000	-1740.98
0.9933,0.0067	-1742.26
0.9862,0.0138	-1747.93
0.9931,0.0069	-1747.27
0.9909,0.0091	-1747.43
0.9772,0.0228	-1764.23
0.9999,0.0001	-1740.98
0.9937,0.0063	-1752.32
0.9899,0.0101	-1752.10
0.9944,0.0056	-1742.05
0.9900,0.0100	-1747.51
0.9736,0.0264	-1749.77
0.9999,0.0001	-1740.98
0.9920,0.0080	-1742.52
0.9895,0.0105	-1743.01
0.9939,0.0061	-1742.14
0.9902,0.0098	-1752.10
0.9794,0.0206	-1768.17
0.9999,0.0001	-1740.98
0.9926,0.0074	-1747.30
0.9901,0.0099	-1752.10
0.9919,0.0081	-1747.35
0.9881,0.0119	-1752.12
0.9767,0.0233	-1767.95
0.9999,0.0001	-1750.51
0.9911,0.0089	-1742.70
0.9903,0.0097	-1742.85
0.9932,0.0068	-1752.26
0.9867,0.0133	-1743.55
0.9789,0.0211	-1768.13
0.9999,0.0001	-1740.98
0.9891,0.0109	-1761.12
0.9904,0.0096	-1761.37
0.9945,0.0055	-1742.03
0.9880,0.0120	-1747.71
0.9757,0.0243	-1764.21
0.9999,0.0001	-1740.98
0.9865,0.0135	-1756.47
0.9921,0.0079	-1752.16
0.9939,0.0061	-1747.25
0.9871,0.0129	-1747.82
0.9802,0.0198	-1748.74
0.9999,0.0001	-1740.98
0.9890,0.0110	-1743.11
0.9910,0.0090	-1756.82
0.9938,0.0062	-1747.25
0.9880,0.0120	-1747.71
0.9832,0.0168	-1744.24
0.9999,0.0001	-1740.99
0.9897,0.0103	-1752.10
0.9933,0.0067	-1747.27
0.9943,0.0057	-1747.23
0.9856,0.0144	-1752.23
0.9830,0.0170	-1752.40
0.9999,0.0001	-1740.98
0.9905,0.0095	-1747.46
0.9940,0.0060	-1742.13
0.9933,0.0067	-1757.26
0.9841,0.0159	-1744.07
0.9771,0.0229	-1756.73
0.9999,0.0001	-1740.99
0.9929,0.0071	-1757.16
0.9929,0.0071	-1757.16
0.9920,0.0080	-1742.52
0.9857,0.0143	-1752.22
0.9744,0.0256	-1760.56
0.9999,0.0001	-1740.99
0.9910,0.0090	-1756.82
0.9929,0.0071	-1752.22
0.9911,0.0089	-1742.69
0.9860,0.0140	-1747.95
0.9785,0.0215	-1749.00
0.9999,0.0001	-1740.99
0.9926,0.0074	-1747.30
0.9922,0.0078	-1742.49
0.9924,0.0076	-1747.31
0.9878,0.0122	-1752.13
0.9793,0.0207	-1756.59
0.9999,0.0001	-1740.98
0.9942,0.0058	-1742.09
0.9933,0.0067	-1742.27
0.9920,0.0080	-1747.34
0.9867,0.0133	-1752.18
0.9770,0.0230	-1760.48
0.9999,0.0001	-1740.98
0.9933,0.0067	-1747.27
0.9942,0.0058	-1742.09
0.9929,0.0071	-1747.29
0.9892,0.0108	-1743.06
0.9781,0.0219	-1752.87
0.9999,0.0001	-1740.98
0.9931,0.0069	-1742.31
0.9943,0.0057	-1742.08
0.9913,0.0087	-1747.40
0.9873,0.0127	-1752.15
0.9770,0.0230	-1760.48
0.9999,0.0001	-1740.98
0.9929,0.0071	-1752.22
0.9936,0.0064	-1747.25
0.9866,0.0134	-1752.18
0.9857,0.0143	-1743.76
0.9754,0.0246	-1760.52
0.9999,0.0001	-1740.98
0.9925,0.0075	-1742.42
0.9921,0.0079	-1747.33
0.9847,0.0153	-1756.45
0.9861,0.0139	-1747.94
0.9762,0.0238	-1756.79
0.9999,0.0001	-1740.98
0.9925,0.0075	-1752.19
0.9922,0.0078	-1752.17
0.9827,0.0173	-1752.43
0.9862,0.0138	-1760.74
0.9796,0.0204	-1764.32
0.9999,0.0001	-1750.57
0.9916,0.0084	-1756.91
0.9924,0.0076	-1747.32
0.9845,0.0155	-1743.99
0.9883,0.0117	-1743.26
0.9799,0.0201	-1764.34
0.9999,0.0001	-1740.98
0.9925,0.0075	-1742.42
0.9897,0.0103	-1752.10
0.9868,0.0132	-1747.85
0.9876,0.0124	-1743.38
0.9832,0.0168	-1752.39
0.9999,0.0001	-1740.98
0.9915,0.0085	-1747.37
0.9918,0.0082	-1752.15
0.9877,0.0123	-1747.75
0.9873,0.0127	-1756.50
0.9870,0.0130	-1756.49
0.9999,0.0001	-1740.98
0.9912,0.0088	-1752.12
0.9932,0.0068	-1742.28
0.9894,0.0106	-1747.57
0.9853,0.0147	-1748.05
0.9881,0.0119	-1743.28
0.9999,0.0001	-1740.98
0.9927,0.0073	-1757.13
0.9926,0.0074	-1747.30
0.9918,0.0082	-1747.36
0.9835,0.0165	-1748.27
0.9890,0.0110	-1747.61
0.9999,0.0001	-1740.98
0.9920,0.0080	-1742.51
0.9919,0.0081	-1747.35
0.9900,0.0100	-1756.70
0.9839,0.0161	-1752.33
0.9906,0.0094	-1742.79
0.9999,0.0001	-1740.98
0.9913,0.0087	-1766.32
0.9903,0.0097	-1747.48
0.9921,0.0079	-1757.01
0.9849,0.0151	-1756.45
0.9880,0.0120	-1774.17
0.9999,0.0001	-1740.98
0.9906,0.0094	-1747.45
0.9879,0.0121	-1747.73
0.9914,0.0086	-1742.64
0.9881,0.0119	-1752.12
0.9890,0.0110	-1747.61
0.9999,0.0001	-1740.98
0.9927,0.0073	-1747.30
0.9872,0.0128	-1743.47
0.9905,0.0095	-1742.82
0.9898,0.0102	-1747.52
0.9830,0.0170	-1744.28
0.9999,0.0001	-1740.98
0.9936,0.0064	-1752.30
0.9862,0.0138	-1760.74
0.9877,0.0123	-1747.75
0.9909,0.0091	-1747.43
0.9840,0.0160	-1748.21
0.9999,0.0001	-1740.99
0.9943,0.0057	-1742.07
0.9850,0.0150	-1752.26
0.9845,0.0155	-1752.29
0.9896,0.0104	-1756.66
0.9822,0.0178	-1768.51
0.9999,0.0001	-1740.99
0.9927,0.0073	-1742.38
0.9869,0.0131	-1765.13
0.9802,0.0198	-1760.45
0.9906,0.0094	-1752.11
0.9841,0.0159	-1760.57
0.9998,0.0002	-1741.00
0.9921,0.0079	-1742.50
0.9889,0.0111	-1743.13
0.9780,0.0220	-1749.08
0.9889,0.0111	-1752.11
0.9816,0.0184	-1756.50
0.9998,0.0002	-1741.00
0.9930,0.0070	-1747.28
0.9884,0.0116	-1752.12
0.9726,0.0274	-1764.21
0.9898,0.0102	-1742.96
0.9777,0.0223	-1764.25
0.9998,0.0002	-1741.00
0.9928,0.0072	-1747.29
0.9884,0.0116	-1752.12
0.9668,0.0332	-1771.13
0.9901,0.0099	-1752.10
0.9796,0.0204	-1752.70
0.9998,0.0002	-1741.00
0.9923,0.0077	-1757.03
0.9891,0.0109	-1761.11
0.9688,0.0312	-1760.87
0.9908,0.0092	-1747.44
0.9792,0.0208	-1764.30
0.9998,0.0002	-1741.01
0.9893,0.0107	-1756.63
0.9886,0.0114	-1747.65
0.9664,0.0336	-1757.69
