#isoforms=['ENSG00000110080.SE.2.A.up_ENSG00000110080.SE.2.A.SE1_ENSG00000110080.SE.2.A.dn','ENSG00000110080.SE.2.B.up_ENSG00000110080.SE.2.B.dn']	exon_lens=('ENSG00000110080.SE.2.A.up',61),('ENSG00000110080.SE.2.A.SE1',96),('ENSG00000110080.SE.2.A.dn',190),('ENSG00000110080.SE.2.B.up',61),('ENSG00000110080.SE.2.B.dn',190)	iters=5000	burn_in=500	lag=10	percent_accept=94.58	proposal_type=drift	counts=(0,0):120,(1,0):195,(1,1):277	assigned_counts=0:467,1:5	chrom=chr11	strand=+	mRNA_starts=126407574,126407574	mRNA_ends=126408496,126408496
sampled_psi	log_score
0.9411,0.0589	-2745.82
0.9806,0.0194	-2732.95
0.9343,0.0657	-2778.41
0.8708,0.1292	-2793.66
0.9511,0.0489	-2745.13
0.9138,0.0862	-2763.88
0.9459,0.0541	-2748.29
0.9817,0.0183	-2701.33
0.9447,0.0553	-2748.35
0.8802,0.1198	-2790.85
0.9521,0.0479	-2763.03
0.9284,0.0716	-2755.02
0.9487,0.0513	-2754.00
0.9793,0.0207	-2709.57
0.9417,0.0583	-2765.24
0.8960,0.1040	-2789.89
0.9578,0.0422	-2723.17
0.9395,0.0605	-2743.24
0.9350,0.0650	-2743.80
0.9743,0.0257	-2724.87
0.9480,0.0520	-2733.67
0.9104,0.0896	-2785.11
0.9532,0.0468	-2736.03
0.9289,0.0711	-2772.96
0.9342,0.0658	-2762.48
0.9725,0.0275	-2739.18
0.9541,0.0459	-2732.90
0.9133,0.0867	-2782.76
0.9566,0.0434	-2732.64
0.9375,0.0625	-2767.85
0.9358,0.0642	-2759.77
0.9734,0.0266	-2721.29
0.9598,0.0402	-2722.85
0.9150,0.0850	-2768.50
0.9611,0.0389	-2745.10
0.9462,0.0538	-2754.01
0.9361,0.0639	-2759.76
0.9692,0.0308	-2728.53
0.9456,0.0544	-2762.58
0.9242,0.0758	-2780.46
0.9571,0.0429	-2745.02
0.9462,0.0538	-2748.27
0.9390,0.0610	-2759.69
0.9784,0.0216	-2709.70
0.9619,0.0381	-2712.84
0.9222,0.0778	-2768.05
0.9534,0.0466	-2729.97
0.9450,0.0550	-2736.95
0.9469,0.0531	-2748.24
0.9841,0.0159	-2696.70
0.9619,0.0381	-2735.44
0.9091,0.0909	-2766.70
0.9493,0.0507	-2759.87
0.9492,0.0508	-2759.86
0.9476,0.0524	-2759.79
0.9877,0.0123	-2700.18
0.9574,0.0426	-2723.24
0.9181,0.0819	-2765.87
0.9490,0.0510	-2751.08
0.9464,0.0536	-2762.62
0.9337,0.0663	-2746.62
0.9877,0.0123	-2717.73
0.9458,0.0542	-2748.29
0.9237,0.0763	-2777.95
0.9426,0.0574	-2751.28
0.9423,0.0577	-2768.05
0.9203,0.0797	-2775.49
0.9880,0.0120	-2700.12
0.9376,0.0624	-2759.72
0.9472,0.0528	-2745.34
0.9275,0.0725	-2762.75
0.9509,0.0491	-2748.11
0.9245,0.0755	-2790.49
0.9877,0.0123	-2700.18
0.9311,0.0689	-2746.96
0.9587,0.0413	-2735.60
0.9256,0.0744	-2772.95
0.9364,0.0636	-2749.00
0.9446,0.0554	-2748.36
0.9887,0.0113	-2708.97
0.9467,0.0533	-2759.76
0.9564,0.0436	-2741.93
0.9407,0.0593	-2751.39
0.9357,0.0643	-2743.71
0.9385,0.0615	-2746.08
0.9820,0.0180	-2697.27
0.9398,0.0602	-2759.68
0.9522,0.0478	-2742.10
0.9398,0.0602	-2748.70
0.9276,0.0724	-2772.95
0.9260,0.0740	-2783.05
0.9819,0.0181	-2701.27
0.9364,0.0636	-2778.58
0.9577,0.0423	-2735.66
0.9389,0.0611	-2748.77
0.9300,0.0700	-2772.97
0.9341,0.0659	-2783.70
0.9835,0.0165	-2717.30
0.9277,0.0723	-2762.74
0.9677,0.0323	-2735.38
0.9274,0.0726	-2752.56
0.9428,0.0572	-2726.05
0.9458,0.0542	-2739.71
0.9821,0.0179	-2717.26
0.9270,0.0730	-2762.78
0.9702,0.0298	-2718.05
0.9275,0.0725	-2775.50
0.9506,0.0494	-2742.20
0.9481,0.0519	-2739.47
0.9812,0.0188	-2733.08
0.9367,0.0633	-2757.05
0.9697,0.0303	-2731.98
0.9351,0.0649	-2762.46
0.9480,0.0520	-2736.58
0.9348,0.0652	-2757.14
0.9786,0.0214	-2705.85
0.9365,0.0635	-2762.44
0.9681,0.0319	-2735.39
0.9368,0.0632	-2754.35
0.9603,0.0397	-2738.70
0.9370,0.0630	-2770.54
0.9808,0.0192	-2713.32
0.9519,0.0481	-2751.08
0.9655,0.0345	-2715.38
0.9502,0.0498	-2751.07
0.9573,0.0427	-2732.58
0.9357,0.0643	-2757.10
0.9838,0.0162	-2717.31
0.9573,0.0427	-2745.02
0.9591,0.0409	-2726.10
0.9513,0.0487	-2742.16
0.9589,0.0411	-2722.98
0.9379,0.0621	-2751.57
0.9830,0.0170	-2713.22
0.9598,0.0402	-2726.02
0.9534,0.0466	-2763.17
0.9544,0.0456	-2735.92
0.9622,0.0378	-2735.43
0.9493,0.0507	-2756.94
0.9811,0.0189	-2709.35
0.9580,0.0420	-2713.76
0.9465,0.0535	-2748.26
0.9615,0.0385	-2716.15
0.9487,0.0513	-2745.25
0.9513,0.0487	-2739.19
0.9810,0.0190	-2725.14
0.9559,0.0441	-2748.10
0.9410,0.0590	-2737.52
0.9615,0.0385	-2729.02
0.9529,0.0471	-2739.06
0.9531,0.0469	-2739.05
0.9779,0.0221	-2717.35
0.9640,0.0360	-2735.39
0.9365,0.0635	-2757.06
0.9573,0.0427	-2735.69
0.9390,0.0610	-2759.70
0.9579,0.0421	-2738.77
0.9816,0.0184	-2733.16
0.9546,0.0454	-2729.81
0.9313,0.0687	-2765.18
0.9506,0.0494	-2742.20
0.9549,0.0451	-2720.62
0.9510,0.0490	-2742.17
0.9810,0.0190	-2709.37
0.9571,0.0429	-2738.81
0.9374,0.0626	-2751.61
0.9564,0.0436	-2738.84
0.9567,0.0433	-2726.44
0.9451,0.0549	-2742.63
0.9772,0.0228	-2709.87
0.9540,0.0460	-2738.98
0.9380,0.0620	-2757.00
0.9578,0.0422	-2723.17
0.9460,0.0540	-2731.10
0.9444,0.0556	-2751.20
0.9796,0.0204	-2717.28
0.9610,0.0390	-2748.30
0.9352,0.0648	-2743.77
0.9495,0.0505	-2754.01
0.9399,0.0601	-2737.68
0.9481,0.0519	-2756.90
0.9802,0.0198	-2732.87
0.9654,0.0346	-2738.70
0.9480,0.0520	-2756.90
0.9579,0.0421	-2726.27
0.9545,0.0455	-2723.74
0.9525,0.0475	-2742.09
0.9856,0.0144	-2708.99
0.9574,0.0426	-2760.58
0.9452,0.0548	-2742.63
0.9499,0.0501	-2748.13
0.9589,0.0411	-2722.98
0.9492,0.0508	-2745.22
0.9832,0.0168	-2701.00
0.9564,0.0436	-2748.11
0.9615,0.0385	-2725.80
0.9449,0.0551	-2748.34
0.9587,0.0413	-2751.32
0.9548,0.0452	-2726.73
0.9850,0.0150	-2704.83
0.9622,0.0378	-2738.67
0.9559,0.0441	-2754.25
0.9521,0.0479	-2745.10
0.9598,0.0402	-2735.54
0.9594,0.0406	-2741.88
0.9785,0.0215	-2709.68
0.9555,0.0445	-2729.68
0.9587,0.0413	-2719.87
0.9583,0.0417	-2735.62
0.9620,0.0380	-2751.60
0.9664,0.0336	-2735.37
0.9780,0.0220	-2728.72
0.9538,0.0462	-2729.91
0.9547,0.0453	-2738.94
0.9469,0.0531	-2748.24
0.9601,0.0399	-2725.98
0.9601,0.0399	-2735.52
0.9793,0.0207	-2717.28
0.9562,0.0438	-2741.93
0.9578,0.0422	-2738.78
0.9277,0.0723	-2752.53
0.9635,0.0365	-2722.30
0.9517,0.0483	-2757.03
0.9803,0.0197	-2709.45
0.9587,0.0413	-2719.87
0.9668,0.0332	-2725.26
0.9257,0.0743	-2767.90
0.9707,0.0293	-2707.50
0.9533,0.0467	-2745.06
0.9803,0.0197	-2721.17
0.9650,0.0350	-2732.06
0.9720,0.0280	-2732.03
0.9411,0.0589	-2770.76
0.9564,0.0436	-2732.66
0.9496,0.0504	-2754.01
0.9817,0.0183	-2709.29
0.9603,0.0397	-2738.70
0.9687,0.0313	-2728.54
0.9453,0.0547	-2745.47
0.9557,0.0443	-2769.60
0.9461,0.0539	-2748.28
0.9854,0.0146	-2704.78
0.9603,0.0397	-2745.07
0.9668,0.0332	-2721.88
0.9437,0.0563	-2731.50
0.9475,0.0525	-2751.10
0.9538,0.0462	-2732.94
0.9891,0.0109	-2695.46
0.9656,0.0344	-2735.37
0.9632,0.0368	-2738.67
0.9571,0.0429	-2748.12
0.9482,0.0518	-2748.18
0.9500,0.0500	-2727.51
0.9924,0.0076	-2694.76
0.9639,0.0361	-2728.82
0.9651,0.0349	-2725.41
0.9469,0.0531	-2742.48
0.9444,0.0556	-2731.37
0.9492,0.0508	-2739.37
0.9910,0.0090	-2695.03
0.9639,0.0361	-2715.67
0.9678,0.0322	-2731.98
0.9445,0.0555	-2745.53
0.9444,0.0556	-2756.87
0.9492,0.0508	-2765.72
0.9916,0.0084	-2704.45
0.9571,0.0429	-2745.02
0.9662,0.0338	-2728.66
0.9500,0.0500	-2754.02
0.9455,0.0545	-2768.28
0.9512,0.0488	-2736.22
0.9911,0.0089	-2709.16
0.9503,0.0497	-2759.93
0.9681,0.0319	-2735.39
0.9461,0.0539	-2751.14
0.9438,0.0562	-2745.58
0.9580,0.0420	-2729.39
0.9909,0.0091	-2695.06
0.9373,0.0627	-2775.95
0.9734,0.0266	-2735.69
0.9394,0.0606	-2754.21
0.9456,0.0544	-2734.02
0.9494,0.0506	-2733.48
0.9925,0.0075	-2704.50
0.9423,0.0577	-2748.50
0.9748,0.0252	-2710.26
0.9352,0.0648	-2751.78
0.9498,0.0502	-2745.19
0.9483,0.0517	-2733.63
0.9910,0.0090	-2699.74
0.9427,0.0573	-2740.08
0.9729,0.0271	-2732.06
0.9374,0.0626	-2743.49
0.9525,0.0475	-2739.09
0.9453,0.0547	-2739.77
0.9888,0.0112	-2695.53
0.9394,0.0606	-2729.54
0.9778,0.0222	-2724.92
0.9408,0.0592	-2754.14
0.9493,0.0507	-2739.35
0.9560,0.0440	-2751.18
0.9879,0.0121	-2704.55
0.9537,0.0463	-2732.96
0.9773,0.0227	-2717.38
0.9488,0.0512	-2748.16
0.9484,0.0516	-2736.54
0.9653,0.0347	-2725.39
0.9897,0.0103	-2704.45
0.9454,0.0546	-2745.46
0.9742,0.0258	-2721.25
0.9461,0.0539	-2754.01
0.9449,0.0551	-2736.98
0.9713,0.0287	-2717.91
0.9922,0.0078	-2704.48
0.9300,0.0700	-2772.97
0.9778,0.0222	-2724.92
0.9398,0.0602	-2759.68
0.9403,0.0597	-2751.41
0.9739,0.0261	-2724.88
0.9918,0.0082	-2699.66
0.9347,0.0653	-2743.85
0.9795,0.0205	-2721.15
0.9399,0.0601	-2776.18
0.9485,0.0515	-2730.70
0.9699,0.0301	-2735.45
0.9940,0.0060	-2694.48
0.9345,0.0655	-2743.87
0.9787,0.0213	-2717.31
0.9450,0.0550	-2754.02
0.9582,0.0418	-2723.11
0.9699,0.0301	-2721.57
0.9913,0.0087	-2704.44
0.9418,0.0582	-2742.97
0.9792,0.0208	-2724.99
0.9492,0.0508	-2745.22
0.9563,0.0437	-2738.85
0.9683,0.0317	-2731.98
0.9894,0.0106	-2704.46
0.9568,0.0432	-2748.11
0.9798,0.0202	-2721.15
0.9469,0.0531	-2730.96
0.9614,0.0386	-2745.11
0.9590,0.0410	-2748.19
0.9867,0.0133	-2713.26
0.9589,0.0411	-2719.84
0.9819,0.0181	-2705.28
0.9340,0.0660	-2757.19
0.9683,0.0317	-2725.14
0.9598,0.0402	-2732.36
0.9878,0.0122	-2713.34
0.9618,0.0382	-2732.22
0.9818,0.0182	-2713.27
0.9297,0.0703	-2770.39
0.9712,0.0288	-2724.97
0.9626,0.0374	-2754.91
0.9891,0.0109	-2704.47
0.9564,0.0436	-2741.93
0.9832,0.0168	-2717.29
0.9461,0.0539	-2739.68
0.9718,0.0282	-2724.94
0.9665,0.0335	-2748.82
0.9887,0.0113	-2695.55
0.9591,0.0409	-2732.42
0.9832,0.0168	-2709.14
0.9481,0.0519	-2751.09
0.9716,0.0284	-2739.08
0.9610,0.0390	-2748.29
0.9898,0.0102	-2709.02
0.9533,0.0467	-2748.08
0.9849,0.0151	-2721.56
0.9410,0.0590	-2751.37
0.9684,0.0316	-2731.98
0.9626,0.0374	-2758.15
0.9896,0.0104	-2695.34
0.9566,0.0434	-2726.45
0.9819,0.0181	-2713.26
0.9492,0.0508	-2730.58
0.9647,0.0353	-2745.30
0.9569,0.0431	-2738.82
0.9913,0.0087	-2694.98
0.9554,0.0446	-2748.09
0.9804,0.0196	-2709.43
0.9512,0.0488	-2739.19
0.9634,0.0366	-2738.67
0.9616,0.0384	-2745.12
0.9936,0.0064	-2699.58
0.9584,0.0416	-2732.48
0.9821,0.0179	-2709.24
0.9591,0.0409	-2729.27
0.9669,0.0331	-2721.87
0.9578,0.0422	-2732.53
0.9945,0.0055	-2699.60
0.9582,0.0418	-2735.63
0.9827,0.0173	-2713.23
0.9574,0.0426	-2738.79
0.9680,0.0320	-2718.35
0.9570,0.0430	-2748.12
0.9933,0.0067	-2694.59
0.9592,0.0408	-2738.73
0.9850,0.0150	-2700.65
0.9599,0.0401	-2719.66
0.9622,0.0378	-2738.67
0.9548,0.0452	-2729.78
0.9930,0.0070	-2694.64
0.9664,0.0336	-2728.65
0.9881,0.0119	-2704.53
0.9630,0.0370	-2738.67
0.9618,0.0382	-2728.99
0.9436,0.0564	-2768.14
0.9918,0.0082	-2694.87
0.9680,0.0320	-2721.75
0.9865,0.0135	-2696.08
0.9576,0.0424	-2723.20
0.9685,0.0315	-2731.98
0.9480,0.0520	-2748.19
0.9909,0.0091	-2690.35
0.9670,0.0330	-2725.24
0.9861,0.0139	-2704.71
0.9606,0.0394	-2725.91
0.9709,0.0291	-2721.47
0.9518,0.0482	-2748.09
0.9912,0.0088	-2690.28
0.9672,0.0328	-2721.84
0.9890,0.0110	-2708.98
0.9646,0.0354	-2732.07
0.9718,0.0282	-2732.02
0.9589,0.0411	-2732.43
0.9912,0.0088	-2704.44
0.9686,0.0314	-2731.98
0.9895,0.0105	-2704.46
0.9638,0.0362	-2718.98
0.9695,0.0305	-2731.98
0.9623,0.0377	-2771.07
0.9926,0.0074	-2699.61
0.9634,0.0366	-2728.86
0.9903,0.0097	-2709.06
0.9594,0.0406	-2732.39
0.9697,0.0303	-2735.44
0.9654,0.0346	-2725.39
0.9927,0.0073	-2694.70
0.9672,0.0328	-2715.08
0.9916,0.0084	-2699.68
0.9644,0.0356	-2705.68
0.9692,0.0308	-2749.21
0.9552,0.0448	-2732.78
0.9916,0.0084	-2718.75
0.9726,0.0274	-2714.21
0.9905,0.0095	-2704.44
0.9701,0.0299	-2728.50
0.9771,0.0229	-2709.88
0.9525,0.0475	-2733.09
0.9904,0.0096	-2699.80
0.9652,0.0348	-2718.76
0.9911,0.0089	-2695.02
0.9765,0.0235	-2728.61
0.9787,0.0213	-2717.31
0.9493,0.0507	-2736.43
0.9894,0.0106	-2704.46
0.9691,0.0309	-2725.08
0.9934,0.0066	-2699.59
0.9717,0.0283	-2707.26
0.9804,0.0196	-2729.00
0.9531,0.0469	-2736.03
0.9891,0.0109	-2718.01
0.9693,0.0307	-2735.43
0.9933,0.0067	-2689.59
0.9788,0.0212	-2721.14
0.9832,0.0168	-2709.15
0.9615,0.0385	-2751.54
0.9857,0.0143	-2708.99
0.9700,0.0300	-2718.08
0.9931,0.0069	-2694.63
0.9772,0.0228	-2717.38
0.9833,0.0167	-2705.06
0.9644,0.0356	-2741.98
0.9859,0.0141	-2704.73
0.9747,0.0253	-2717.57
0.9936,0.0064	-2704.63
0.9782,0.0218	-2732.55
0.9849,0.0151	-2734.09
0.9672,0.0328	-2731.99
0.9836,0.0164	-2705.02
0.9754,0.0246	-2739.59
0.9951,0.0049	-2689.01
0.9792,0.0208	-2713.44
0.9831,0.0169	-2705.10
0.9690,0.0310	-2738.86
0.9808,0.0192	-2701.52
0.9786,0.0214	-2724.96
0.9942,0.0058	-2694.44
0.9769,0.0231	-2724.89
0.9774,0.0226	-2717.37
0.9698,0.0302	-2721.57
0.9780,0.0220	-2724.93
0.9746,0.0254	-2721.22
0.9956,0.0044	-2694.28
0.9708,0.0292	-2742.51
0.9797,0.0203	-2728.90
0.9688,0.0312	-2731.97
0.9764,0.0236	-2717.43
0.9734,0.0266	-2717.69
0.9955,0.0045	-2688.87
0.9730,0.0270	-2710.56
0.9782,0.0218	-2709.72
0.9757,0.0243	-2713.79
0.9740,0.0260	-2739.37
0.9674,0.0326	-2728.60
0.9948,0.0052	-2694.36
0.9690,0.0310	-2731.97
0.9831,0.0169	-2705.08
0.9774,0.0226	-2732.44
0.9722,0.0278	-2724.93
0.9691,0.0309	-2735.42
0.9937,0.0063	-2689.46
0.9710,0.0290	-2724.97
0.9786,0.0214	-2702.03
0.9755,0.0245	-2721.19
0.9721,0.0279	-2717.83
0.9658,0.0342	-2735.37
0.9949,0.0051	-2694.35
0.9722,0.0278	-2728.48
0.9785,0.0215	-2728.77
0.9759,0.0241	-2706.37
0.9714,0.0286	-2739.05
0.9603,0.0397	-2722.77
0.9943,0.0057	-2694.44
0.9657,0.0343	-2732.03
0.9836,0.0164	-2700.92
0.9724,0.0276	-2746.29
0.9689,0.0311	-2738.85
0.9545,0.0455	-2738.95
0.9935,0.0065	-2704.61
0.9694,0.0306	-2725.06
0.9777,0.0223	-2713.57
0.9714,0.0286	-2714.39
0.9646,0.0354	-2735.38
0.9542,0.0458	-2723.79
0.9944,0.0056	-2694.42
0.9732,0.0268	-2728.49
0.9800,0.0200	-2713.37
0.9788,0.0212	-2736.47
0.9583,0.0417	-2729.36
0.9398,0.0602	-2754.19
0.9938,0.0062	-2709.73
0.9676,0.0324	-2735.38
0.9824,0.0176	-2725.31
0.9775,0.0225	-2736.22
0.9562,0.0438	-2738.85
0.9471,0.0529	-2779.97
0.9929,0.0071	-2704.54
0.9630,0.0370	-2715.85
0.9856,0.0144	-2708.99
0.9810,0.0190	-2729.09
0.9544,0.0456	-2732.88
0.9582,0.0418	-2748.16
0.9942,0.0058	-2699.59
0.9632,0.0368	-2725.61
0.9827,0.0173	-2729.39
0.9818,0.0182	-2709.28
0.9512,0.0488	-2745.13
0.9564,0.0436	-2751.19
0.9929,0.0071	-2704.54
0.9564,0.0436	-2738.84
0.9845,0.0155	-2713.20
0.9780,0.0220	-2736.30
0.9518,0.0482	-2736.16
0.9622,0.0378	-2725.73
0.9939,0.0061	-2694.49
0.9536,0.0464	-2739.01
0.9843,0.0157	-2709.06
0.9744,0.0256	-2721.23
0.9590,0.0410	-2748.19
0.9733,0.0267	-2717.70
0.9918,0.0082	-2699.67
0.9554,0.0446	-2741.96
0.9811,0.0189	-2709.35
0.9749,0.0251	-2713.90
0.9535,0.0465	-2726.94
0.9707,0.0293	-2731.99
0.9914,0.0086	-2699.70
0.9473,0.0527	-2754.00
0.9870,0.0130	-2717.60
0.9778,0.0222	-2713.57
0.9554,0.0446	-2763.41
0.9648,0.0352	-2732.06
0.9901,0.0099	-2690.62
0.9465,0.0535	-2748.26
0.9851,0.0149	-2704.83
0.9759,0.0241	-2721.17
0.9620,0.0380	-2738.67
0.9545,0.0455	-2757.21
0.9914,0.0086	-2718.71
0.9554,0.0446	-2748.09
0.9829,0.0171	-2709.17
0.9686,0.0314	-2725.12
0.9572,0.0428	-2748.13
0.9537,0.0463	-2732.95
0.9919,0.0081	-2718.88
0.9374,0.0626	-2751.61
0.9759,0.0241	-2728.58
0.9701,0.0299	-2728.50
0.9598,0.0402	-2719.67
0.9467,0.0533	-2745.37
0.9911,0.0089	-2695.01
0.9336,0.0664	-2738.71
0.9719,0.0281	-2721.39
0.9639,0.0361	-2735.39
0.9565,0.0435	-2732.65
0.9432,0.0568	-2740.01
0.9914,0.0086	-2704.45
0.9383,0.0617	-2767.87
0.9688,0.0312	-2711.37
0.9690,0.0310	-2725.09
0.9577,0.0423	-2748.14
0.9369,0.0631	-2757.04
0.9923,0.0077	-2689.92
0.9256,0.0744	-2783.03
0.9660,0.0340	-2725.33
0.9766,0.0234	-2709.97
0.9638,0.0362	-2738.67
0.9428,0.0572	-2734.45
0.9903,0.0097	-2704.44
0.9120,0.0880	-2771.08
0.9648,0.0352	-2732.06
0.9766,0.0234	-2732.34
0.9583,0.0417	-2741.89
0.9359,0.0641	-2759.77
0.9920,0.0080	-2699.65
0.9138,0.0862	-2766.23
0.9731,0.0269	-2728.49
0.9765,0.0235	-2728.61
0.9610,0.0390	-2729.07
0.9371,0.0629	-2759.73
0.9920,0.0080	-2714.11
0.9256,0.0744	-2762.86
0.9773,0.0227	-2728.66
0.9802,0.0198	-2701.65
0.9686,0.0314	-2718.26
0.9327,0.0673	-2744.13
0.9912,0.0088	-2694.99
0.9449,0.0551	-2739.82
0.9798,0.0202	-2717.27
0.9833,0.0167	-2721.37
0.9643,0.0357	-2748.57
0.9333,0.0667	-2762.51
0.9917,0.0083	-2699.67
0.9467,0.0533	-2736.74
0.9808,0.0192	-2717.25
0.9795,0.0205	-2709.54
0.9655,0.0345	-2708.72
0.9257,0.0743	-2777.99
0.9933,0.0067	-2699.59
0.9510,0.0490	-2733.28
0.9846,0.0154	-2704.89
0.9749,0.0251	-2717.55
0.9665,0.0335	-2748.81
0.9460,0.0540	-2776.91
0.9932,0.0068	-2694.60
0.9424,0.0576	-2754.09
0.9873,0.0127	-2704.60
0.9726,0.0274	-2707.06
0.9590,0.0410	-2732.42
0.9528,0.0472	-2745.08
0.9907,0.0093	-2704.44
0.9448,0.0552	-2773.91
0.9897,0.0103	-2704.45
0.9664,0.0336	-2725.29
0.9567,0.0433	-2723.35
0.9561,0.0439	-2735.78
0.9901,0.0099	-2699.83
0.9526,0.0474	-2745.08
0.9914,0.0086	-2709.19
0.9670,0.0330	-2738.75
0.9561,0.0439	-2738.86
0.9556,0.0444	-2732.74
0.9900,0.0100	-2704.44
0.9512,0.0488	-2736.22
0.9908,0.0092	-2695.08
0.9711,0.0289	-2724.97
0.9598,0.0402	-2741.88
0.9467,0.0533	-2754.00
0.9896,0.0104	-2699.89
0.9603,0.0397	-2725.96
0.9903,0.0097	-2699.82
0.9742,0.0258	-2724.88
0.9627,0.0373	-2728.92
0.9497,0.0503	-2736.39
0.9905,0.0095	-2699.79
0.9562,0.0438	-2751.18
0.9877,0.0123	-2704.56
0.9740,0.0260	-2714.01
0.9616,0.0384	-2748.34
0.9650,0.0350	-2728.74
0.9917,0.0083	-2704.46
0.9584,0.0416	-2748.17
0.9897,0.0103	-2699.88
0.9745,0.0255	-2724.87
0.9664,0.0336	-2725.29
0.9630,0.0370	-2732.15
0.9912,0.0088	-2704.44
0.9532,0.0468	-2751.09
0.9887,0.0113	-2713.43
0.9819,0.0181	-2709.27
0.9662,0.0338	-2718.60
0.9602,0.0398	-2748.25
0.9907,0.0093	-2704.44
0.9560,0.0440	-2760.41
0.9845,0.0155	-2704.90
0.9797,0.0203	-2717.28
0.9696,0.0304	-2721.59
0.9614,0.0386	-2732.25
0.9924,0.0076	-2714.25
0.9581,0.0419	-2732.50
0.9833,0.0167	-2721.37
0.9802,0.0198	-2713.36
0.9707,0.0293	-2724.99
0.9617,0.0383	-2745.12
0.9935,0.0065	-2704.62
0.9653,0.0347	-2735.37
0.9861,0.0139	-2726.02
0.9765,0.0235	-2724.88
0.9692,0.0308	-2742.33
0.9593,0.0407	-2732.41
0.9938,0.0062	-2699.58
0.9662,0.0338	-2728.66
0.9843,0.0157	-2713.20
0.9756,0.0244	-2710.12
0.9713,0.0287	-2703.82
0.9536,0.0464	-2754.12
0.9925,0.0075	-2699.62
0.9736,0.0264	-2721.28
0.9829,0.0171	-2701.06
0.9719,0.0281	-2728.48
0.9692,0.0308	-2735.42
0.9506,0.0494	-2751.07
0.9917,0.0083	-2699.67
0.9691,0.0309	-2718.19
0.9834,0.0166	-2713.21
0.9794,0.0206	-2705.69
0.9807,0.0193	-2721.18
0.9568,0.0432	-2729.53
0.9924,0.0076	-2694.75
0.9672,0.0328	-2725.22
0.9832,0.0168	-2705.08
0.9791,0.0209	-2717.29
0.9756,0.0244	-2728.56
0.9547,0.0453	-2726.75
0.9911,0.0089	-2704.44
0.9642,0.0358	-2725.50
0.9845,0.0155	-2700.74
0.9746,0.0254	-2728.52
0.9780,0.0220	-2724.93
0.9556,0.0444	-2726.60
0.9919,0.0081	-2694.84
0.9664,0.0336	-2721.93
0.9826,0.0174	-2701.14
0.9756,0.0244	-2724.87
0.9798,0.0202	-2725.04
0.9602,0.0398	-2745.06
0.9912,0.0088	-2699.72
0.9714,0.0286	-2724.96
0.9853,0.0147	-2721.61
0.9731,0.0269	-2721.31
0.9756,0.0244	-2717.49
0.9582,0.0418	-2732.50
0.9907,0.0093	-2713.77
0.9713,0.0287	-2714.40
0.9832,0.0168	-2709.14
0.9737,0.0263	-2714.05
0.9762,0.0238	-2713.74
0.9637,0.0363	-2718.99
0.9911,0.0089	-2709.15
0.9708,0.0292	-2746.01
0.9805,0.0195	-2717.26
0.9732,0.0268	-2735.68
0.9784,0.0216	-2721.13
0.9684,0.0316	-2721.70
0.9906,0.0094	-2690.46
0.9655,0.0345	-2732.04
0.9822,0.0178	-2717.26
0.9714,0.0286	-2735.53
0.9842,0.0158	-2721.47
0.9743,0.0257	-2735.78
0.9903,0.0097	-2699.81
0.9679,0.0321	-2725.17
0.9840,0.0160	-2721.44
0.9722,0.0278	-2721.37
0.9808,0.0192	-2717.25
0.9758,0.0242	-2743.35
0.9918,0.0082	-2694.87
0.9639,0.0361	-2748.53
0.9841,0.0159	-2713.20
0.9723,0.0277	-2724.92
0.9813,0.0187	-2705.37
0.9749,0.0251	-2713.89
0.9889,0.0111	-2700.00
0.9685,0.0315	-2742.25
0.9808,0.0192	-2705.45
0.9771,0.0229	-2709.89
0.9804,0.0196	-2725.08
0.9714,0.0286	-2714.38
0.9917,0.0083	-2694.90
0.9606,0.0394	-2719.52
0.9828,0.0172	-2717.27
0.9783,0.0217	-2721.13
0.9859,0.0141	-2704.73
0.9731,0.0269	-2717.72
0.9897,0.0103	-2704.45
0.9681,0.0319	-2728.57
0.9826,0.0174	-2709.20
0.9738,0.0262	-2721.27
0.9857,0.0143	-2713.22
0.9718,0.0282	-2728.48
0.9884,0.0116	-2704.51
0.9647,0.0353	-2738.68
0.9849,0.0151	-2725.75
0.9763,0.0237	-2721.16
0.9836,0.0164	-2717.30
0.9713,0.0287	-2732.01
0.9890,0.0110	-2704.48
0.9688,0.0312	-2707.92
0.9768,0.0232	-2717.41
0.9745,0.0255	-2717.58
0.9857,0.0143	-2700.51
0.9708,0.0292	-2728.49
0.9857,0.0143	-2717.45
0.9683,0.0317	-2735.40
0.9690,0.0310	-2714.76
0.9692,0.0308	-2742.32
0.9818,0.0182	-2709.28
0.9613,0.0387	-2729.05
0.9845,0.0155	-2717.35
0.9695,0.0305	-2718.13
0.9727,0.0273	-2721.34
0.9716,0.0284	-2717.88
0.9825,0.0175	-2713.24
0.9513,0.0487	-2739.19
0.9762,0.0238	-2702.59
0.9715,0.0285	-2732.01
0.9708,0.0292	-2739.00
0.9751,0.0249	-2732.21
0.9802,0.0198	-2713.36
0.9533,0.0467	-2732.99
0.9752,0.0248	-2706.52
0.9797,0.0203	-2725.03
0.9723,0.0277	-2714.24
0.9742,0.0258	-2724.88
0.9761,0.0239	-2713.75
0.9492,0.0508	-2730.58
0.9767,0.0233	-2736.10
0.9856,0.0144	-2713.22
0.9743,0.0257	-2717.61
0.9735,0.0265	-2717.68
0.9767,0.0233	-2717.42
0.9405,0.0595	-2737.60
0.9736,0.0264	-2706.85
0.9850,0.0150	-2717.39
0.9784,0.0216	-2713.50
0.9746,0.0254	-2717.57
0.9788,0.0212	-2713.47
0.9451,0.0549	-2745.48
0.9709,0.0291	-2710.96
0.9842,0.0158	-2729.72
0.9767,0.0233	-2709.94
0.9824,0.0176	-2709.22
0.9787,0.0213	-2717.31
0.9387,0.0613	-2756.97
0.9702,0.0298	-2714.57
0.9798,0.0202	-2728.92
0.9779,0.0221	-2717.34
0.9823,0.0177	-2709.22
0.9771,0.0229	-2736.16
0.9399,0.0601	-2743.19
0.9649,0.0351	-2751.94
0.9781,0.0219	-2717.34
0.9792,0.0208	-2724.99
0.9812,0.0188	-2705.38
0.9771,0.0229	-2713.64
0.9371,0.0629	-2743.53
0.9641,0.0359	-2745.26
0.9814,0.0186	-2709.32
0.9831,0.0169	-2713.22
0.9843,0.0157	-2725.62
0.9837,0.0163	-2721.40
0.9452,0.0548	-2748.33
0.9647,0.0353	-2738.68
0.9838,0.0162	-2713.20
0.9825,0.0175	-2705.17
0.9813,0.0187	-2705.37
0.9834,0.0166	-2717.29
0.9451,0.0549	-2748.33
0.9687,0.0313	-2725.11
0.9844,0.0156	-2713.20
0.9769,0.0231	-2724.89
0.9857,0.0143	-2713.22
0.9812,0.0188	-2717.25
0.9478,0.0522	-2733.70
0.9671,0.0329	-2728.61
0.9829,0.0171	-2721.32
0.9777,0.0223	-2717.35
0.9873,0.0127	-2722.01
0.9829,0.0171	-2713.22
0.9621,0.0379	-2735.44
0.9716,0.0284	-2721.41
0.9836,0.0164	-2729.58
0.9808,0.0192	-2701.52
0.9879,0.0121	-2722.15
0.9819,0.0181	-2713.26
0.9557,0.0443	-2735.81
0.9755,0.0245	-2721.19
0.9817,0.0183	-2705.31
0.9827,0.0173	-2697.07
0.9879,0.0121	-2717.75
0.9800,0.0200	-2725.05
0.9625,0.0375	-2722.44
0.9792,0.0208	-2728.84
0.9788,0.0212	-2713.47
0.9771,0.0229	-2702.38
0.9891,0.0109	-2704.47
0.9792,0.0208	-2721.14
0.9613,0.0387	-2741.89
0.9792,0.0208	-2717.29
0.9777,0.0223	-2717.36
0.9803,0.0197	-2721.17
0.9889,0.0111	-2704.48
0.9799,0.0201	-2721.16
0.9645,0.0355	-2751.89
0.9829,0.0171	-2717.27
0.9751,0.0249	-2728.54
0.9772,0.0228	-2702.36
0.9903,0.0097	-2704.44
0.9796,0.0204	-2725.02
0.9550,0.0450	-2748.08
0.9829,0.0171	-2705.12
0.9728,0.0272	-2714.17
0.9709,0.0291	-2732.00
0.9898,0.0102	-2704.45
0.9829,0.0171	-2729.43
0.9613,0.0387	-2732.26
0.9883,0.0117	-2708.95
0.9781,0.0219	-2709.73
0.9749,0.0251	-2717.55
0.9891,0.0109	-2699.97
0.9847,0.0153	-2700.71
0.9617,0.0383	-2725.78
0.9884,0.0116	-2726.74
0.9721,0.0279	-2703.62
0.9712,0.0288	-2728.48
0.9901,0.0099	-2699.83
0.9856,0.0144	-2717.44
0.9633,0.0367	-2735.40
0.9893,0.0107	-2699.94
0.9713,0.0287	-2742.57
0.9683,0.0317	-2714.88
0.9890,0.0110	-2708.98
0.9863,0.0137	-2708.96
0.9637,0.0363	-2738.67
0.9914,0.0086	-2694.95
0.9755,0.0245	-2717.50
0.9730,0.0270	-2728.48
0.9877,0.0123	-2713.33
0.9876,0.0124	-2713.33
0.9692,0.0308	-2735.42
0.9906,0.0094	-2704.44
0.9801,0.0199	-2717.26
0.9616,0.0384	-2735.45
0.9857,0.0143	-2713.22
0.9878,0.0122	-2700.15
0.9675,0.0325	-2721.81
0.9882,0.0118	-2700.09
0.9818,0.0182	-2713.27
0.9678,0.0322	-2718.37
0.9877,0.0123	-2695.79
0.9863,0.0137	-2721.80
0.9712,0.0288	-2728.48
0.9873,0.0127	-2704.59
0.9793,0.0207	-2701.87
0.9647,0.0353	-2735.37
0.9862,0.0138	-2704.69
0.9850,0.0150	-2713.20
0.9656,0.0344	-2742.04
0.9858,0.0142	-2725.94
0.9790,0.0210	-2709.61
0.9664,0.0336	-2752.16
0.9848,0.0152	-2709.03
0.9853,0.0147	-2709.00
0.9563,0.0437	-2738.84
0.9850,0.0150	-2709.02
0.9796,0.0204	-2721.15
0.9703,0.0297	-2718.04
0.9797,0.0203	-2713.40
0.9882,0.0118	-2708.95
0.9651,0.0349	-2732.05
0.9868,0.0132	-2704.64
0.9832,0.0168	-2713.22
0.9749,0.0251	-2713.89
0.9812,0.0188	-2705.39
0.9876,0.0124	-2695.80
0.9645,0.0355	-2718.87
0.9834,0.0166	-2717.29
0.9853,0.0147	-2713.21
0.9667,0.0333	-2732.00
0.9790,0.0210	-2713.45
0.9894,0.0106	-2699.92
0.9662,0.0338	-2728.66
0.9850,0.0150	-2704.83
0.9861,0.0139	-2713.23
0.9673,0.0327	-2725.21
0.9815,0.0185	-2713.28
0.9880,0.0120	-2695.71
0.9625,0.0375	-2758.14
0.9855,0.0145	-2696.33
0.9894,0.0106	-2713.53
0.9680,0.0320	-2742.20
0.9780,0.0220	-2717.34
0.9886,0.0114	-2700.04
0.9556,0.0444	-2751.16
0.9857,0.0143	-2704.75
0.9895,0.0105	-2709.00
0.9719,0.0281	-2703.68
0.9786,0.0214	-2717.31
0.9873,0.0127	-2691.53
0.9483,0.0517	-2754.00
0.9839,0.0161	-2709.09
0.9896,0.0104	-2695.35
0.9778,0.0222	-2709.77
0.9803,0.0197	-2697.72
0.9874,0.0126	-2713.31
0.9435,0.0565	-2756.87
0.9843,0.0157	-2709.06
0.9905,0.0095	-2699.79
0.9808,0.0192	-2713.32
0.9869,0.0131	-2695.98
0.9860,0.0140	-2704.72
0.9375,0.0625	-2762.43
0.9832,0.0168	-2701.00
0.9913,0.0087	-2704.44
0.9776,0.0224	-2709.81
0.9856,0.0144	-2708.99
0.9852,0.0148	-2713.21
0.9361,0.0639	-2765.13
0.9834,0.0166	-2713.21
0.9906,0.0094	-2723.06
0.9849,0.0151	-2709.02
0.9837,0.0163	-2705.01
0.9850,0.0150	-2713.20
0.9472,0.0528	-2748.22
0.9835,0.0165	-2725.47
0.9923,0.0077	-2694.77
0.9845,0.0155	-2717.35
0.9833,0.0167	-2705.06
0.9840,0.0160	-2709.08
0.9431,0.0569	-2740.02
0.9830,0.0170	-2705.11
0.9908,0.0092	-2690.41
0.9810,0.0190	-2709.36
0.9845,0.0155	-2696.59
0.9828,0.0172	-2713.23
0.9477,0.0523	-2730.82
0.9827,0.0173	-2705.15
0.9904,0.0096	-2699.81
0.9769,0.0231	-2728.64
0.9843,0.0157	-2709.06
0.9842,0.0158	-2704.93
0.9381,0.0619	-2767.87
0.9804,0.0196	-2713.35
0.9918,0.0082	-2704.46
0.9793,0.0207	-2701.87
0.9868,0.0132	-2721.90
0.9838,0.0162	-2725.53
0.9485,0.0515	-2756.92
0.9836,0.0164	-2709.12
0.9903,0.0097	-2709.07
0.9814,0.0186	-2725.18
0.9863,0.0137	-2700.42
0.9848,0.0152	-2704.86
0.9473,0.0527	-2756.89
0.9816,0.0184	-2725.21
0.9901,0.0099	-2713.66
0.9766,0.0234	-2724.88
0.9869,0.0131	-2700.31
0.9854,0.0146	-2704.78
0.9510,0.0490	-2748.10
0.9825,0.0175	-2713.24
0.9921,0.0079	-2694.81
0.9796,0.0204	-2709.54
0.9887,0.0113	-2708.97
0.9863,0.0137	-2708.97
0.9405,0.0595	-2734.83
0.9806,0.0194	-2701.56
0.9914,0.0086	-2704.45
0.9799,0.0201	-2693.96
0.9867,0.0133	-2708.95
0.9861,0.0139	-2700.45
0.9447,0.0553	-2731.33
0.9839,0.0161	-2704.98
0.9907,0.0093	-2695.11
0.9807,0.0193	-2721.18
0.9847,0.0153	-2713.20
0.9857,0.0143	-2704.75
0.9514,0.0486	-2751.07
0.9865,0.0135	-2691.80
0.9874,0.0126	-2695.87
0.9769,0.0231	-2721.15
0.9852,0.0148	-2713.21
0.9844,0.0156	-2709.06
0.9550,0.0450	-2745.03
0.9843,0.0157	-2696.65
0.9853,0.0147	-2713.21
0.9753,0.0247	-2728.55
0.9839,0.0161	-2696.75
0.9845,0.0155	-2717.35
0.9448,0.0552	-2736.99
0.9856,0.0144	-2708.99
0.9874,0.0126	-2691.51
0.9720,0.0280	-2728.48
0.9818,0.0182	-2697.32
0.9834,0.0166	-2713.21
0.9457,0.0543	-2751.15
0.9870,0.0130	-2695.97
0.9881,0.0119	-2708.95
0.9728,0.0272	-2710.60
0.9819,0.0181	-2709.26
0.9796,0.0204	-2705.66
0.9499,0.0501	-2748.13
0.9890,0.0110	-2699.98
0.9869,0.0131	-2700.31
0.9685,0.0315	-2711.42
0.9850,0.0150	-2700.65
0.9817,0.0183	-2709.29
0.9494,0.0506	-2739.35
0.9870,0.0130	-2695.97
0.9880,0.0120	-2708.95
0.9678,0.0322	-2738.79
0.9843,0.0157	-2721.48
0.9816,0.0184	-2721.23
0.9558,0.0442	-2745.02
0.9861,0.0139	-2704.71
0.9886,0.0114	-2700.04
0.9729,0.0271	-2710.58
0.9822,0.0178	-2717.26
0.9782,0.0218	-2724.94
0.9663,0.0337	-2738.72
0.9816,0.0184	-2717.25
0.9886,0.0114	-2713.43
0.9709,0.0291	-2717.97
0.9782,0.0218	-2717.33
0.9811,0.0189	-2721.20
0.9633,0.0367	-2728.86
0.9816,0.0184	-2705.33
0.9848,0.0152	-2704.86
0.9629,0.0371	-2732.15
0.9742,0.0258	-2710.36
0.9854,0.0146	-2709.00
0.9560,0.0440	-2723.47
0.9781,0.0219	-2728.73
0.9811,0.0189	-2709.36
0.9575,0.0425	-2726.33
0.9635,0.0365	-2719.04
0.9819,0.0181	-2693.29
0.9488,0.0512	-2748.16
0.9726,0.0274	-2724.91
0.9826,0.0174	-2709.19
0.9487,0.0513	-2736.50
0.9744,0.0256	-2732.15
0.9877,0.0123	-2704.56
0.9415,0.0585	-2740.23
0.9734,0.0266	-2728.49
0.9834,0.0166	-2729.53
0.9395,0.0605	-2770.66
0.9760,0.0240	-2724.88
0.9847,0.0153	-2709.04
0.9351,0.0649	-2770.47
0.9788,0.0212	-2717.31
0.9795,0.0205	-2717.28
0.9257,0.0743	-2775.47
0.9766,0.0234	-2728.61
0.9876,0.0124	-2704.57
0.9381,0.0619	-2737.96
0.9793,0.0207	-2698.01
0.9726,0.0274	-2724.91
0.9401,0.0599	-2756.93
0.9778,0.0222	-2724.92
0.9894,0.0106	-2709.00
0.9265,0.0735	-2760.27
0.9781,0.0219	-2740.12
0.9658,0.0342	-2732.03
0.9486,0.0514	-2730.69
0.9797,0.0203	-2728.90
0.9886,0.0114	-2700.03
0.9418,0.0582	-2776.37
0.9816,0.0184	-2705.32
0.9672,0.0328	-2721.84
0.9530,0.0470	-2739.06
0.9833,0.0167	-2705.06
0.9893,0.0107	-2699.94
0.9423,0.0577	-2762.47
0.9841,0.0159	-2709.08
0.9683,0.0317	-2721.72
0.9553,0.0447	-2754.21
0.9784,0.0216	-2721.13
0.9900,0.0100	-2695.25
0.9531,0.0469	-2733.02
0.9830,0.0170	-2709.16
0.9776,0.0224	-2728.69
0.9527,0.0473	-2754.09
0.9750,0.0250	-2721.21
0.9913,0.0087	-2704.44
0.9599,0.0401	-2738.71
0.9770,0.0230	-2713.65
0.9777,0.0223	-2728.70
0.9569,0.0431	-2717.11
0.9770,0.0230	-2706.15
0.9927,0.0073	-2699.61
0.9573,0.0427	-2745.02
0.9754,0.0246	-2732.23
0.9767,0.0233	-2709.94
0.9520,0.0480	-2736.14
0.9789,0.0211	-2705.79
0.9937,0.0063	-2694.52
0.9526,0.0474	-2739.08
0.9784,0.0216	-2702.07
0.9769,0.0231	-2713.66
0.9449,0.0551	-2754.02
0.9728,0.0272	-2717.75
0.9928,0.0072	-2704.53
0.9419,0.0581	-2768.03
0.9736,0.0264	-2717.67
0.9808,0.0192	-2725.12
0.9501,0.0499	-2739.29
0.9765,0.0235	-2713.71
0.9914,0.0086	-2699.70
0.9581,0.0419	-2745.02
0.9710,0.0290	-2703.91
0.9819,0.0181	-2725.24
0.9542,0.0458	-2723.79
0.9788,0.0212	-2701.98
0.9920,0.0080	-2690.02
0.9602,0.0398	-2729.15
0.9759,0.0241	-2702.66
0.9809,0.0191	-2721.19
0.9595,0.0405	-2722.90
0.9841,0.0159	-2709.08
0.9899,0.0101	-2690.69
0.9628,0.0372	-2735.41
0.9773,0.0227	-2721.14
0.9852,0.0148	-2704.81
0.9607,0.0393	-2729.10
0.9845,0.0155	-2717.35
0.9901,0.0099	-2699.84
0.9642,0.0358	-2709.03
0.9807,0.0193	-2713.33
0.9851,0.0149	-2696.45
0.9621,0.0379	-2735.44
0.9851,0.0149	-2704.82
0.9905,0.0095	-2695.14
0.9688,0.0312	-2728.54
0.9825,0.0175	-2705.17
0.9857,0.0143	-2713.22
0.9502,0.0498	-2742.23
0.9830,0.0170	-2717.28
0.9896,0.0104	-2695.35
0.9638,0.0362	-2725.55
0.9762,0.0238	-2713.74
0.9826,0.0174	-2713.23
0.9487,0.0513	-2739.42
0.9836,0.0164	-2717.30
0.9909,0.0091	-2699.75
0.9625,0.0375	-2722.44
0.9825,0.0175	-2705.18
0.9821,0.0179	-2701.23
0.9356,0.0644	-2746.39
0.9832,0.0168	-2705.08
0.9888,0.0112	-2708.97
0.9656,0.0344	-2728.70
0.9783,0.0217	-2724.94
0.9819,0.0181	-2693.28
0.9332,0.0668	-2754.59
0.9815,0.0185	-2705.34
0.9907,0.0093	-2695.09
0.9637,0.0363	-2738.67
0.9789,0.0211	-2709.62
0.9820,0.0180	-2717.26
0.9175,0.0825	-2773.14
0.9821,0.0179	-2705.24
0.9910,0.0090	-2704.44
0.9498,0.0502	-2742.25
0.9803,0.0197	-2713.35
0.9823,0.0177	-2701.20
0.9230,0.0770	-2768.01
0.9787,0.0213	-2717.31
0.9915,0.0085	-2704.45
0.9613,0.0387	-2732.25
0.9829,0.0171	-2705.11
0.9821,0.0179	-2725.27
0.9353,0.0647	-2767.80
0.9778,0.0222	-2721.14
0.9932,0.0068	-2699.59
0.9653,0.0347	-2725.39
0.9806,0.0194	-2709.41
0.9788,0.0212	-2713.47
0.9247,0.0753	-2777.97
0.9699,0.0301	-2725.04
0.9947,0.0053	-2694.38
0.9623,0.0377	-2703.04
0.9809,0.0191	-2709.38
0.9756,0.0244	-2721.18
0.9374,0.0626	-2757.02
0.9756,0.0244	-2728.56
0.9947,0.0053	-2689.13
0.9611,0.0389	-2719.43
0.9801,0.0199	-2705.58
0.9747,0.0253	-2710.27
0.9522,0.0478	-2745.10
0.9747,0.0253	-2706.61
0.9944,0.0056	-2699.60
0.9567,0.0433	-2751.21
0.9726,0.0274	-2728.48
0.9724,0.0276	-2732.04
0.9227,0.0773	-2775.46
0.9794,0.0206	-2721.15
0.9951,0.0049	-2689.01
0.9626,0.0374	-2738.67
0.9688,0.0312	-2714.79
0.9667,0.0333	-2725.27
0.9238,0.0762	-2753.00
0.9825,0.0175	-2697.12
0.9946,0.0054	-2694.39
0.9642,0.0358	-2728.79
0.9648,0.0352	-2738.68
0.9685,0.0315	-2714.84
0.9185,0.0815	-2753.72
0.9827,0.0173	-2709.19
0.9962,0.0038	-2694.23
0.9660,0.0340	-2728.67
0.9685,0.0315	-2721.70
0.9675,0.0325	-2728.59
0.9159,0.0841	-2775.59
0.9823,0.0177	-2713.25
0.9952,0.0048	-2699.65
0.9622,0.0378	-2732.19
0.9641,0.0359	-2732.09
0.9702,0.0298	-2721.53
0.9003,0.0997	-2774.37
0.9818,0.0182	-2709.28
0.9951,0.0049	-2704.95
0.9617,0.0383	-2748.35
0.9667,0.0333	-2735.37
0.9593,0.0407	-2741.88
0.9152,0.0848	-2761.35
0.9835,0.0165	-2709.12
0.9943,0.0057	-2694.43
0.9603,0.0397	-2729.14
0.9667,0.0333	-2721.90
0.9604,0.0396	-2751.45
0.9155,0.0845	-2777.99
0.9830,0.0170	-2705.10
0.9933,0.0067	-2694.59
0.9546,0.0454	-2751.13
0.9675,0.0325	-2721.80
0.9766,0.0234	-2721.15
0.9093,0.0907	-2796.65
0.9846,0.0154	-2721.52
0.9931,0.0069	-2699.59
0.9522,0.0478	-2775.01
0.9727,0.0273	-2724.91
0.9761,0.0239	-2717.46
0.9074,0.0926	-2778.30
0.9803,0.0197	-2701.63
0.9935,0.0065	-2694.56
0.9514,0.0486	-2748.10
0.9671,0.0329	-2725.23
0.9762,0.0238	-2724.88
0.8978,0.1022	-2789.83
0.9827,0.0173	-2705.16
0.9942,0.0058	-2704.73
0.9505,0.0495	-2742.20
0.9745,0.0255	-2728.52
0.9743,0.0257	-2713.97
0.9056,0.0944	-2794.23
0.9872,0.0128	-2704.61
0.9928,0.0072	-2699.60
0.9507,0.0493	-2748.11
0.9757,0.0243	-2728.57
0.9725,0.0275	-2742.75
0.9225,0.0775	-2782.89
0.9852,0.0148	-2709.01
0.9929,0.0071	-2699.60
0.9451,0.0549	-2734.11
0.9790,0.0210	-2701.93
0.9739,0.0261	-2728.50
0.9264,0.0736	-2760.28
0.9837,0.0163	-2700.91
0.9923,0.0077	-2694.78
0.9454,0.0546	-2745.46
0.9812,0.0188	-2721.21
0.9712,0.0288	-2732.00
0.9291,0.0709	-2760.09
0.9845,0.0155	-2696.60
0.9944,0.0056	-2689.25
0.9517,0.0483	-2748.09
0.9781,0.0219	-2724.93
0.9702,0.0298	-2725.02
0.9192,0.0808	-2775.51
0.9858,0.0142	-2713.22
0.9940,0.0060	-2689.35
0.9399,0.0601	-2748.69
0.9739,0.0261	-2724.88
0.9721,0.0279	-2724.93
0.9214,0.0786	-2770.55
0.9838,0.0162	-2729.63
0.9942,0.0058	-2699.59
0.9482,0.0518	-2754.00
0.9709,0.0291	-2721.47
0.9715,0.0285	-2714.37
0.9292,0.0708	-2749.79
0.9829,0.0171	-2725.37
0.9940,0.0060	-2704.69
0.9423,0.0577	-2745.71
0.9809,0.0191	-2709.38
0.9667,0.0333	-2742.11
0.9256,0.0744	-2788.07
0.9863,0.0137	-2704.69
0.9932,0.0068	-2689.63
0.9413,0.0587	-2751.35
0.9836,0.0164	-2709.12
0.9743,0.0257	-2721.24
0.9252,0.0748	-2762.89
0.9825,0.0175	-2717.26
0.9935,0.0065	-2694.56
0.9285,0.0715	-2767.83
0.9809,0.0191	-2713.31
0.9725,0.0275	-2707.09
0.9305,0.0695	-2749.63
0.9833,0.0167	-2717.29
0.9942,0.0058	-2694.45
0.9316,0.0684	-2741.68
0.9820,0.0180	-2709.26
0.9741,0.0259	-2714.00
0.9368,0.0632	-2738.17
0.9837,0.0163	-2717.31
0.9943,0.0057	-2704.76
0.9271,0.0729	-2775.49
0.9836,0.0164	-2705.01
0.9752,0.0248	-2732.21
0.9438,0.0562	-2748.40
0.9840,0.0160	-2704.96
0.9945,0.0055	-2694.40
0.9283,0.0717	-2765.27
0.9826,0.0174	-2709.20
0.9749,0.0251	-2710.23
0.9534,0.0466	-2732.99
0.9838,0.0162	-2709.10
0.9958,0.0042	-2694.26
0.9150,0.0850	-2768.50
0.9777,0.0223	-2721.14
0.9746,0.0254	-2721.22
0.9469,0.0531	-2751.12
0.9844,0.0156	-2709.06
0.9957,0.0043	-2694.26
0.9218,0.0782	-2763.13
0.9764,0.0236	-2709.99
0.9750,0.0250	-2728.53
0.9548,0.0452	-2745.03
0.9848,0.0152	-2713.20
0.9954,0.0046	-2705.05
0.9366,0.0634	-2751.67
0.9765,0.0235	-2709.97
0.9767,0.0233	-2728.62
0.9537,0.0463	-2729.93
0.9869,0.0131	-2721.92
0.9955,0.0045	-2699.68
0.9312,0.0688	-2762.58
0.9764,0.0236	-2713.72
0.9757,0.0243	-2713.79
0.9545,0.0455	-2738.95
0.9849,0.0151	-2717.38
0.9940,0.0060	-2709.82
0.9346,0.0654	-2743.86
0.9741,0.0259	-2713.99
0.9726,0.0274	-2707.06
0.9556,0.0444	-2735.82
0.9830,0.0170	-2713.22
0.9941,0.0059	-2694.46
0.9273,0.0727	-2772.95
0.9773,0.0227	-2702.33
0.9724,0.0276	-2739.16
0.9552,0.0448	-2723.62
0.9807,0.0193	-2709.40
0.9951,0.0049	-2689.02
0.9328,0.0672	-2773.04
0.9771,0.0229	-2724.90
0.9731,0.0269	-2728.49
0.9563,0.0437	-2738.84
0.9794,0.0206	-2721.14
0.9944,0.0056	-2699.60
0.9244,0.0756	-2777.97
0.9772,0.0228	-2721.14
0.9666,0.0334	-2738.73
0.9550,0.0450	-2726.69
0.9786,0.0214	-2698.21
0.9945,0.0055	-2704.80
0.9266,0.0734	-2767.87
0.9808,0.0192	-2717.25
0.9621,0.0379	-2735.44
0.9574,0.0426	-2760.58
0.9794,0.0206	-2717.28
0.9952,0.0048	-2694.31
0.9211,0.0789	-2777.93
0.9769,0.0231	-2732.38
0.9527,0.0473	-2739.08
0.9622,0.0378	-2748.38
0.9812,0.0188	-2717.25
0.9946,0.0054	-2694.39
0.9224,0.0776	-2775.46
0.9712,0.0288	-2732.00
0.9486,0.0514	-2727.77
0.9720,0.0280	-2714.29
0.9787,0.0213	-2705.83
0.9957,0.0043	-2705.14
0.9234,0.0766	-2763.01
0.9735,0.0265	-2735.70
0.9554,0.0446	-2763.41
0.9724,0.0276	-2728.48
0.9814,0.0186	-2701.39
0.9936,0.0064	-2714.71
0.9266,0.0734	-2770.41
0.9735,0.0265	-2739.31
0.9639,0.0361	-2755.09
0.9664,0.0336	-2732.01
0.9808,0.0192	-2713.32
0.9939,0.0061	-2694.49
0.9449,0.0551	-2751.18
0.9722,0.0278	-2717.82
0.9618,0.0382	-2732.22
0.9627,0.0373	-2735.42
0.9751,0.0249	-2717.54
0.9930,0.0070	-2699.60
0.9354,0.0646	-2762.46
0.9738,0.0262	-2735.73
0.9430,0.0570	-2756.87
0.9652,0.0348	-2715.44
0.9765,0.0235	-2721.16
0.9910,0.0090	-2695.04
0.9385,0.0615	-2767.88
0.9762,0.0238	-2713.73
0.9495,0.0505	-2756.94
0.9591,0.0409	-2735.57
0.9817,0.0183	-2717.25
0.9905,0.0095	-2695.15
0.9506,0.0494	-2745.16
0.9770,0.0230	-2717.40
0.9513,0.0487	-2724.32
0.9593,0.0407	-2741.88
0.9823,0.0177	-2721.28
0.9931,0.0069	-2694.63
0.9546,0.0454	-2748.08
0.9788,0.0212	-2709.64
0.9547,0.0453	-2745.03
0.9610,0.0390	-2732.28
0.9834,0.0166	-2709.13
0.9938,0.0062	-2694.50
0.9493,0.0507	-2748.15
0.9750,0.0250	-2724.87
0.9513,0.0487	-2739.18
0.9560,0.0440	-2738.86
0.9884,0.0116	-2717.84
0.9948,0.0052	-2699.62
0.9583,0.0417	-2723.09
0.9751,0.0249	-2724.87
0.9508,0.0492	-2745.15
0.9547,0.0453	-2732.84
0.9887,0.0113	-2704.50
0.9956,0.0044	-2694.28
0.9669,0.0331	-2735.37
0.9788,0.0212	-2717.31
0.9514,0.0486	-2751.07
0.9535,0.0465	-2736.00
0.9912,0.0088	-2694.99
0.9960,0.0040	-2699.76
0.9704,0.0296	-2718.03
0.9810,0.0190	-2713.31
0.9490,0.0510	-2736.46
0.9568,0.0432	-2745.02
0.9928,0.0072	-2694.67
0.9956,0.0044	-2694.27
0.9716,0.0284	-2710.82
0.9834,0.0166	-2713.21
0.9464,0.0536	-2739.65
0.9588,0.0412	-2741.89
0.9927,0.0073	-2694.71
0.9961,0.0039	-2694.23
0.9653,0.0347	-2725.39
0.9791,0.0209	-2713.45
0.9445,0.0555	-2745.53
0.9604,0.0396	-2722.76
0.9919,0.0081	-2723.67
0.9967,0.0033	-2699.92
0.9574,0.0426	-2735.68
0.9810,0.0190	-2733.04
0.9314,0.0686	-2765.18
0.9701,0.0299	-2742.41
0.9926,0.0074	-2699.62
0.9970,0.0030	-2688.41
0.9648,0.0352	-2722.13
0.9778,0.0222	-2724.92
0.9408,0.0592	-2745.85
0.9707,0.0293	-2717.99
0.9929,0.0071	-2714.43
0.9972,0.0028	-2694.21
0.9709,0.0291	-2731.99
0.9818,0.0182	-2713.27
0.9273,0.0727	-2757.67
0.9654,0.0346	-2715.39
0.9930,0.0070	-2694.64
0.9974,0.0026	-2688.28
0.9747,0.0253	-2710.27
0.9807,0.0193	-2717.26
0.9182,0.0818	-2768.27
0.9682,0.0318	-2731.98
0.9932,0.0068	-2699.59
0.9974,0.0026	-2688.28
0.9749,0.0251	-2717.55
0.9852,0.0148	-2713.21
0.9145,0.0855	-2768.53
0.9666,0.0334	-2738.74
0.9923,0.0077	-2694.78
0.9973,0.0027	-2688.30
0.9724,0.0276	-2735.61
0.9874,0.0126	-2708.95
0.9204,0.0796	-2765.69
0.9633,0.0367	-2725.59
0.9904,0.0096	-2709.07
0.9969,0.0031	-2699.97
0.9777,0.0223	-2706.01
0.9879,0.0121	-2708.95
0.9178,0.0822	-2763.47
0.9649,0.0351	-2725.43
0.9890,0.0110	-2722.46
0.9973,0.0027	-2694.22
0.9778,0.0222	-2721.14
0.9894,0.0106	-2704.46
0.9059,0.0941	-2780.65
0.9570,0.0430	-2751.22
0.9892,0.0108	-2695.44
0.9970,0.0030	-2694.21
0.9746,0.0254	-2713.93
0.9910,0.0090	-2699.73
0.9147,0.0853	-2785.13
0.9597,0.0403	-2741.88
0.9888,0.0112	-2708.97
0.9976,0.0024	-2688.20
0.9715,0.0285	-2728.48
0.9926,0.0074	-2709.42
0.9301,0.0699	-2760.03
0.9568,0.0432	-2726.43
0.9860,0.0140	-2708.97
0.9973,0.0027	-2694.22
0.9727,0.0273	-2717.77
0.9925,0.0075	-2694.73
0.9163,0.0837	-2770.80
0.9648,0.0352	-2712.19
0.9886,0.0114	-2704.50
0.9978,0.0022	-2694.27
0.9682,0.0318	-2718.32
0.9916,0.0084	-2694.92
0.9138,0.0862	-2768.60
0.9611,0.0389	-2732.27
0.9874,0.0126	-2708.95
0.9976,0.0024	-2700.28
0.9724,0.0276	-2728.48
0.9907,0.0093	-2699.76
0.9379,0.0621	-2746.14
0.9594,0.0406	-2722.90
0.9836,0.0164	-2692.75
0.9976,0.0024	-2694.24
0.9771,0.0229	-2736.16
0.9906,0.0094	-2709.09
0.9440,0.0560	-2742.74
0.9586,0.0414	-2748.17
0.9812,0.0188	-2705.38
0.9974,0.0026	-2688.29
0.9788,0.0212	-2709.64
0.9921,0.0079	-2699.65
0.9438,0.0562	-2762.51
0.9668,0.0332	-2738.74
0.9787,0.0213	-2705.83
0.9968,0.0032	-2688.46
0.9747,0.0253	-2721.22
0.9919,0.0081	-2690.06
0.9525,0.0475	-2739.09
0.9652,0.0348	-2742.02
0.9810,0.0190	-2705.43
0.9962,0.0038	-2694.23
0.9716,0.0284	-2717.88
0.9933,0.0067	-2704.59
0.9436,0.0564	-2762.50
0.9633,0.0367	-2728.87
0.9815,0.0185	-2721.23
0.9971,0.0029	-2694.21
0.9668,0.0332	-2745.49
0.9921,0.0079	-2704.48
0.9374,0.0626	-2751.61
0.9507,0.0493	-2759.95
0.9857,0.0143	-2704.76
0.9966,0.0034	-2688.52
0.9739,0.0261	-2714.02
0.9899,0.0101	-2704.44
0.9397,0.0603	-2770.67
0.9542,0.0458	-2729.85
0.9844,0.0156	-2700.76
0.9969,0.0031	-2688.44
0.9747,0.0253	-2721.22
0.9888,0.0112	-2700.01
0.9234,0.0766	-2763.02
0.9472,0.0528	-2754.00
0.9871,0.0129	-2700.27
0.9972,0.0028	-2688.34
0.9827,0.0173	-2717.27
0.9854,0.0146	-2709.00
0.9159,0.0841	-2770.82
0.9579,0.0421	-2751.27
0.9851,0.0149	-2721.58
0.9973,0.0027	-2694.22
0.9793,0.0207	-2713.43
0.9802,0.0198	-2709.45
0.9263,0.0737	-2780.54
0.9612,0.0388	-2725.85
0.9858,0.0142	-2704.74
0.9966,0.0034	-2688.52
0.9781,0.0219	-2721.13
0.9818,0.0182	-2705.29
0.9178,0.0822	-2770.71
0.9566,0.0434	-2748.11
0.9842,0.0158	-2725.60
0.9969,0.0031	-2699.99
0.9702,0.0298	-2738.95
0.9845,0.0155	-2709.05
0.9093,0.0907	-2766.69
0.9629,0.0371	-2725.65
0.9865,0.0135	-2704.66
0.9973,0.0027	-2694.22
0.9699,0.0301	-2718.09
0.9874,0.0126	-2704.58
0.9185,0.0815	-2765.83
0.9712,0.0288	-2739.04
0.9844,0.0156	-2696.63
0.9976,0.0024	-2694.24
0.9730,0.0270	-2739.24
0.9881,0.0119	-2695.70
0.9237,0.0763	-2772.97
0.9738,0.0262	-2739.34
0.9858,0.0142	-2713.22
0.9974,0.0026	-2700.18
0.9730,0.0270	-2728.48
0.9864,0.0136	-2696.11
0.9142,0.0858	-2763.83
0.9676,0.0324	-2728.59
0.9848,0.0152	-2704.86
0.9981,0.0019	-2694.32
0.9739,0.0261	-2710.40
0.9871,0.0129	-2713.29
0.9176,0.0824	-2782.77
0.9631,0.0369	-2725.62
0.9837,0.0163	-2705.00
0.9980,0.0020	-2694.30
0.9751,0.0249	-2728.54
0.9873,0.0127	-2726.35
0.9202,0.0798	-2751.03
0.9645,0.0355	-2718.87
0.9844,0.0156	-2713.20
0.9987,0.0013	-2694.50
0.9804,0.0196	-2709.44
0.9896,0.0104	-2704.45
0.9207,0.0793	-2770.58
0.9575,0.0425	-2720.09
0.9853,0.0147	-2725.82
0.9987,0.0013	-2687.85
0.9822,0.0178	-2713.25
0.9891,0.0109	-2704.47
0.9259,0.0741	-2783.05
0.9603,0.0397	-2732.33
0.9860,0.0140	-2708.97
0.9986,0.0014	-2701.05
0.9798,0.0202	-2709.50
0.9905,0.0095	-2704.44
0.9268,0.0732	-2760.25
0.9580,0.0420	-2729.38
0.9848,0.0152	-2717.37
0.9986,0.0014	-2687.88
0.9752,0.0248	-2721.20
0.9913,0.0087	-2709.18
0.9206,0.0794	-2785.28
0.9444,0.0556	-2762.53
0.9841,0.0159	-2729.69
0.9984,0.0016	-2694.40
0.9736,0.0264	-2728.49
0.9886,0.0114	-2708.96
0.9228,0.0772	-2770.50
0.9351,0.0649	-2741.12
0.9834,0.0166	-2713.21
0.9983,0.0017	-2694.37
0.9716,0.0284	-2732.01
0.9898,0.0102	-2695.30
0.9302,0.0698	-2767.80
0.9458,0.0542	-2742.58
0.9872,0.0128	-2700.26
0.9982,0.0018	-2688.02
0.9710,0.0290	-2724.97
0.9912,0.0088	-2709.17
0.9134,0.0866	-2789.83
0.9384,0.0616	-2748.81
0.9876,0.0124	-2708.95
0.9978,0.0022	-2688.14
0.9741,0.0259	-2732.13
0.9915,0.0085	-2713.97
0.9207,0.0793	-2768.13
0.9425,0.0575	-2768.07
0.9888,0.0112	-2717.93
0.9979,0.0021	-2688.10
0.9754,0.0246	-2724.87
0.9911,0.0089	-2713.86
0.9210,0.0790	-2768.11
0.9426,0.0574	-2759.68
0.9882,0.0118	-2704.52
0.9980,0.0020	-2688.07
0.9683,0.0317	-2735.40
0.9923,0.0077	-2709.34
0.9170,0.0830	-2765.95
0.9476,0.0524	-2730.84
0.9839,0.0161	-2704.98
0.9978,0.0022	-2694.26
0.9639,0.0361	-2738.67
0.9927,0.0073	-2694.69
0.9279,0.0721	-2767.84
0.9504,0.0496	-2736.30
0.9818,0.0182	-2713.26
0.9975,0.0025	-2706.17
0.9672,0.0328	-2725.23
0.9925,0.0075	-2694.73
0.9104,0.0896	-2812.93
0.9525,0.0475	-2745.08
0.9802,0.0198	-2721.16
0.9974,0.0026	-2694.22
0.9649,0.0351	-2732.06
0.9934,0.0066	-2694.58
0.9167,0.0833	-2765.97
0.9489,0.0511	-2739.39
0.9785,0.0215	-2713.50
0.9967,0.0033	-2699.93
0.9602,0.0398	-2738.70
0.9926,0.0074	-2699.62
0.9095,0.0905	-2782.81
0.9462,0.0538	-2745.40
0.9808,0.0192	-2697.58
0.9965,0.0035	-2694.21
0.9662,0.0338	-2718.60
0.9914,0.0086	-2694.95
0.9019,0.0981	-2774.21
0.9350,0.0650	-2762.46
0.9787,0.0213	-2701.99
0.9964,0.0036	-2688.58
0.9724,0.0276	-2717.80
0.9905,0.0095	-2699.79
0.8932,0.1068	-2830.36
0.9359,0.0641	-2741.01
0.9816,0.0184	-2709.29
0.9961,0.0039	-2688.69
0.9722,0.0278	-2710.71
0.9887,0.0113	-2704.49
0.9163,0.0837	-2775.58
0.9359,0.0641	-2762.45
0.9828,0.0172	-2729.41
0.9956,0.0044	-2688.84
0.9703,0.0297	-2711.06
0.9873,0.0127	-2704.59
0.9185,0.0815	-2773.10
0.9438,0.0562	-2742.76
0.9802,0.0198	-2736.77
0.9962,0.0038	-2694.23
0.9764,0.0236	-2732.32
0.9871,0.0129	-2695.95
0.9198,0.0802	-2768.18
0.9459,0.0541	-2771.18
0.9834,0.0166	-2721.37
0.9949,0.0051	-2689.09
0.9737,0.0263	-2724.88
0.9864,0.0136	-2704.68
0.9323,0.0677	-2754.67
0.9388,0.0612	-2773.35
0.9834,0.0166	-2717.29
0.9947,0.0053	-2699.61
0.9669,0.0331	-2721.87
0.9855,0.0145	-2734.31
0.9283,0.0717	-2762.71
0.9316,0.0684	-2744.29
0.9842,0.0158	-2721.46
0.9936,0.0064	-2699.58
0.9710,0.0290	-2728.49
0.9838,0.0162	-2700.88
0.9241,0.0759	-2752.96
0.9374,0.0626	-2770.55
0.9837,0.0163	-2705.01
0.9930,0.0070	-2699.60
0.9739,0.0261	-2721.26
0.9835,0.0165	-2700.94
0.9236,0.0764	-2767.98
0.9447,0.0553	-2742.67
0.9811,0.0189	-2713.30
0.9943,0.0057	-2689.26
0.9714,0.0286	-2728.48
0.9860,0.0140	-2700.46
0.9381,0.0619	-2737.97
0.9339,0.0661	-2765.14
0.9812,0.0188	-2709.34
0.9955,0.0045	-2694.28
0.9674,0.0326	-2731.99
0.9882,0.0118	-2695.66
0.9333,0.0667	-2759.87
0.9310,0.0690	-2767.79
0.9825,0.0175	-2721.30
0.9965,0.0035	-2711.19
0.9680,0.0320	-2728.57
0.9864,0.0136	-2721.81
0.9370,0.0630	-2781.33
0.9340,0.0660	-2770.44
0.9798,0.0202	-2721.15
0.9969,0.0031	-2699.97
0.9696,0.0304	-2728.51
0.9830,0.0170	-2709.17
0.9360,0.0640	-2754.40
0.9346,0.0654	-2743.85
0.9760,0.0240	-2721.17
0.9974,0.0026	-2694.22
0.9678,0.0322	-2731.98
0.9830,0.0170	-2717.28
0.9421,0.0579	-2745.73
0.9423,0.0577	-2731.74
0.9677,0.0323	-2721.79
0.9970,0.0030	-2694.21
0.9519,0.0481	-2742.12
0.9837,0.0163	-2713.21
0.9356,0.0644	-2751.75
0.9421,0.0579	-2765.25
0.9765,0.0235	-2713.70
0.9977,0.0023	-2700.32
0.9555,0.0445	-2738.89
0.9867,0.0133	-2713.26
0.9365,0.0635	-2773.20
0.9417,0.0583	-2751.33
0.9698,0.0302	-2714.63
0.9980,0.0020	-2694.29
0.9555,0.0445	-2729.69
0.9897,0.0103	-2699.89
0.9390,0.0610	-2743.29
0.9474,0.0526	-2736.65
0.9685,0.0315	-2708.00
0.9982,0.0018	-2694.33
0.9584,0.0416	-2763.86
0.9900,0.0100	-2704.44
0.9398,0.0602	-2754.19
0.9415,0.0585	-2759.67
0.9634,0.0366	-2719.05
0.9987,0.0013	-2687.85
0.9457,0.0543	-2745.44
0.9876,0.0124	-2695.82
0.9517,0.0483	-2745.11
0.9437,0.0563	-2754.05
0.9697,0.0303	-2731.98
0.9987,0.0013	-2687.87
0.9627,0.0373	-2725.66
0.9880,0.0120	-2700.13
0.9611,0.0389	-2725.85
0.9347,0.0653	-2751.83
0.9710,0.0290	-2732.00
0.9983,0.0017	-2687.97
0.9645,0.0355	-2732.07
0.9869,0.0131	-2708.95
0.9574,0.0426	-2745.02
0.9475,0.0525	-2742.43
0.9709,0.0291	-2724.98
0.9984,0.0016	-2687.95
0.9673,0.0327	-2721.83
0.9872,0.0128	-2704.60
0.9363,0.0637	-2765.13
0.9361,0.0639	-2767.81
0.9759,0.0241	-2721.17
0.9983,0.0017	-2700.77
0.9672,0.0328	-2718.46
0.9849,0.0151	-2709.02
0.9357,0.0643	-2759.77
0.9394,0.0606	-2745.98
0.9806,0.0194	-2713.34
0.9981,0.0019	-2688.04
0.9685,0.0315	-2718.27
0.9799,0.0201	-2697.84
0.9306,0.0694	-2760.01
0.9402,0.0598	-2754.17
0.9817,0.0183	-2713.27
0.9981,0.0019	-2688.04
0.9679,0.0321	-2742.20
0.9791,0.0209	-2728.84
0.9256,0.0744	-2750.26
0.9512,0.0488	-2730.27
0.9857,0.0143	-2700.52
0.9978,0.0022	-2688.13
0.9684,0.0316	-2745.67
0.9804,0.0196	-2736.82
0.9301,0.0699	-2749.69
0.9514,0.0486	-2745.12
0.9882,0.0118	-2700.10
0.9974,0.0026	-2688.27
0.9751,0.0249	-2717.53
0.9768,0.0232	-2709.93
0.9248,0.0752	-2765.42
0.9462,0.0538	-2751.14
0.9872,0.0128	-2704.60
0.9970,0.0030	-2688.39
0.9791,0.0209	-2709.60
0.9693,0.0307	-2725.07
0.9268,0.0732	-2772.94
0.9542,0.0458	-2772.37
0.9828,0.0172	-2709.18
0.9974,0.0026	-2688.26
0.9836,0.0164	-2717.30
0.9693,0.0307	-2731.98
0.9333,0.0667	-2759.87
0.9548,0.0452	-2766.39
0.9827,0.0173	-2717.27
0.9970,0.0030	-2694.21
0.9834,0.0166	-2721.38
0.9689,0.0311	-2725.09
0.9148,0.0852	-2756.65
0.9431,0.0569	-2742.83
0.9838,0.0162	-2717.31
0.9971,0.0029	-2694.21
0.9858,0.0142	-2713.22
0.9721,0.0279	-2717.83
0.9136,0.0864	-2789.83
0.9539,0.0461	-2742.02
0.9870,0.0130	-2717.60
0.9970,0.0030	-2700.00
0.9845,0.0155	-2709.05
0.9723,0.0277	-2732.04
0.9215,0.0785	-2758.23
0.9517,0.0483	-2765.98
0.9891,0.0109	-2699.96
0.9976,0.0024	-2706.32
0.9845,0.0155	-2700.75
0.9751,0.0249	-2739.54
0.9316,0.0684	-2749.50
0.9468,0.0532	-2742.48
0.9886,0.0114	-2695.57
0.9974,0.0026	-2694.23
0.9851,0.0149	-2704.82
0.9742,0.0258	-2713.98
0.9258,0.0742	-2755.28
0.9530,0.0470	-2745.07
0.9891,0.0109	-2708.98
0.9969,0.0031	-2699.99
0.9853,0.0147	-2704.80
0.9797,0.0203	-2709.52
0.9388,0.0612	-2767.89
0.9445,0.0555	-2765.37
0.9898,0.0102	-2704.45
0.9969,0.0031	-2694.21
0.9883,0.0117	-2708.95
0.9777,0.0223	-2732.48
0.9381,0.0619	-2770.59
0.9478,0.0522	-2759.80
0.9876,0.0124	-2717.70
0.9971,0.0029	-2688.38
0.9871,0.0129	-2721.97
0.9759,0.0241	-2750.79
0.9403,0.0597	-2732.11
0.9343,0.0657	-2759.82
0.9875,0.0125	-2713.32
0.9976,0.0024	-2688.21
0.9899,0.0101	-2713.61
0.9733,0.0267	-2728.49
0.9561,0.0439	-2729.61
0.9344,0.0656	-2754.51
0.9886,0.0114	-2691.13
0.9975,0.0025	-2688.25
0.9891,0.0109	-2704.47
0.9726,0.0274	-2735.62
0.9599,0.0401	-2729.18
0.9445,0.0555	-2745.53
0.9886,0.0114	-2700.04
0.9969,0.0031	-2699.99
0.9899,0.0101	-2713.61
0.9730,0.0270	-2710.56
0.9610,0.0390	-2757.90
0.9479,0.0521	-2748.20
0.9885,0.0115	-2704.50
0.9968,0.0032	-2688.46
0.9879,0.0121	-2713.35
0.9752,0.0248	-2710.18
0.9624,0.0376	-2732.19
0.9505,0.0495	-2751.07
0.9875,0.0125	-2713.32
0.9976,0.0024	-2694.24
0.9859,0.0141	-2704.73
0.9799,0.0201	-2713.38
0.9697,0.0303	-2749.30
0.9475,0.0525	-2756.89
0.9878,0.0122	-2708.95
0.9976,0.0024	-2688.20
0.9848,0.0152	-2729.89
0.9853,0.0147	-2700.60
0.9663,0.0337	-2762.21
0.9475,0.0525	-2745.32
0.9861,0.0139	-2708.97
0.9970,0.0030	-2705.81
0.9814,0.0186	-2713.29
0.9819,0.0181	-2733.23
0.9602,0.0398	-2729.15
0.9480,0.0520	-2762.71
0.9872,0.0128	-2717.65
0.9970,0.0030	-2700.00
0.9783,0.0217	-2724.94
0.9798,0.0202	-2697.88
0.9651,0.0349	-2735.37
0.9444,0.0556	-2768.19
0.9874,0.0126	-2708.95
0.9968,0.0032	-2694.21
0.9770,0.0230	-2728.64
0.9796,0.0204	-2705.66
0.9642,0.0358	-2735.38
0.9508,0.0492	-2762.91
0.9872,0.0128	-2700.26
0.9963,0.0037	-2688.63
0.9754,0.0246	-2732.23
0.9767,0.0233	-2706.21
0.9635,0.0365	-2738.67
0.9542,0.0458	-2735.93
0.9869,0.0131	-2713.27
0.9966,0.0034	-2688.54
0.9745,0.0255	-2721.23
0.9779,0.0221	-2709.77
0.9640,0.0360	-2732.10
0.9594,0.0406	-2745.04
0.9824,0.0176	-2705.19
0.9971,0.0029	-2688.36
0.9768,0.0232	-2728.63
0.9819,0.0181	-2717.26
0.9625,0.0375	-2741.91
0.9673,0.0327	-2715.06
0.9796,0.0204	-2713.40
0.9969,0.0031	-2694.21
0.9725,0.0275	-2714.22
0.9825,0.0175	-2725.32
0.9634,0.0366	-2719.05
0.9731,0.0269	-2714.13
0.9794,0.0206	-2728.86
0.9978,0.0022	-2694.26
0.9735,0.0265	-2721.29
0.9819,0.0181	-2713.26
0.9595,0.0405	-2732.38
0.9758,0.0242	-2732.27
0.9804,0.0196	-2721.17
0.9978,0.0022	-2688.16
0.9725,0.0275	-2739.18
0.9833,0.0167	-2717.29
0.9697,0.0303	-2725.04
0.9767,0.0233	-2721.15
0.9795,0.0205	-2705.69
0.9975,0.0025	-2694.23
0.9762,0.0238	-2721.16
0.9879,0.0121	-2717.75
0.9691,0.0309	-2725.08
0.9735,0.0265	-2717.68
0.9747,0.0253	-2721.22
0.9978,0.0022	-2688.14
0.9806,0.0194	-2709.41
0.9880,0.0120	-2700.13
0.9674,0.0326	-2711.66
0.9762,0.0238	-2713.73
0.9719,0.0281	-2721.39
0.9979,0.0021	-2694.27
0.9785,0.0215	-2702.05
0.9854,0.0146	-2713.21
0.9690,0.0310	-2738.86
0.9731,0.0269	-2706.96
0.9684,0.0316	-2714.87
0.9978,0.0022	-2694.26
0.9718,0.0282	-2735.56
0.9900,0.0100	-2704.44
0.9682,0.0318	-2718.32
0.9703,0.0297	-2721.53
0.9747,0.0253	-2710.26
0.9977,0.0023	-2700.30
0.9747,0.0253	-2713.92
0.9903,0.0097	-2699.82
0.9722,0.0278	-2721.37
0.9712,0.0288	-2717.93
0.9754,0.0246	-2713.83
0.9978,0.0022	-2688.15
0.9767,0.0233	-2728.62
0.9919,0.0081	-2690.04
0.9685,0.0315	-2711.43
0.9722,0.0278	-2728.48
0.9740,0.0260	-2735.75
0.9979,0.0021	-2694.28
0.9778,0.0222	-2717.35
0.9918,0.0082	-2690.06
0.9758,0.0242	-2713.79
0.9678,0.0322	-2731.98
0.9697,0.0303	-2721.58
0.9976,0.0024	-2706.33
0.9742,0.0258	-2717.61
0.9913,0.0087	-2694.96
0.9730,0.0270	-2714.15
0.9720,0.0280	-2728.48
0.9679,0.0321	-2731.98
0.9977,0.0023	-2694.25
0.9739,0.0261	-2735.74
0.9916,0.0084	-2694.91
0.9762,0.0238	-2721.16
0.9752,0.0248	-2706.52
0.9717,0.0283	-2721.41
0.9976,0.0024	-2688.20
0.9767,0.0233	-2713.68
0.9906,0.0094	-2695.12
0.9764,0.0236	-2706.26
0.9729,0.0271	-2728.48
0.9755,0.0245	-2724.87
0.9979,0.0021	-2688.12
0.9786,0.0214	-2717.31
0.9902,0.0098	-2709.05
0.9829,0.0171	-2713.22
0.9741,0.0259	-2717.62
0.9768,0.0232	-2717.41
0.9980,0.0020	-2688.08
0.9769,0.0231	-2728.64
0.9901,0.0099	-2709.05
0.9821,0.0179	-2729.27
0.9770,0.0230	-2709.89
0.9794,0.0206	-2709.56
0.9975,0.0025	-2688.23
0.9747,0.0253	-2710.27
0.9900,0.0100	-2699.85
0.9744,0.0256	-2695.75
0.9756,0.0244	-2717.50
0.9818,0.0182	-2705.29
0.9980,0.0020	-2694.29
0.9781,0.0219	-2728.73
0.9916,0.0084	-2704.45
0.9766,0.0234	-2709.95
0.9781,0.0219	-2724.93
0.9795,0.0205	-2697.94
0.9977,0.0023	-2694.25
0.9798,0.0202	-2705.63
0.9905,0.0095	-2699.79
0.9779,0.0221	-2709.76
0.9770,0.0230	-2736.14
0.9782,0.0218	-2698.31
0.9975,0.0025	-2688.25
0.9812,0.0188	-2713.30
0.9889,0.0111	-2700.00
0.9746,0.0254	-2728.52
0.9774,0.0226	-2728.67
0.9749,0.0251	-2706.56
0.9976,0.0024	-2688.21
0.9813,0.0187	-2725.17
0.9909,0.0091	-2699.74
0.9727,0.0273	-2742.78
0.9731,0.0269	-2728.48
0.9719,0.0281	-2732.02
0.9966,0.0034	-2688.52
0.9792,0.0208	-2724.99
0.9909,0.0091	-2695.06
0.9710,0.0290	-2721.46
0.9718,0.0282	-2732.02
0.9724,0.0276	-2732.04
0.9956,0.0044	-2699.70
0.9767,0.0233	-2713.68
0.9904,0.0096	-2690.52
0.9762,0.0238	-2739.74
0.9735,0.0265	-2721.29
0.9784,0.0216	-2705.89
0.9966,0.0034	-2688.54
0.9774,0.0226	-2713.61
0.9897,0.0103	-2695.32
0.9772,0.0228	-2706.10
0.9711,0.0289	-2739.03
0.9751,0.0249	-2743.22
0.9967,0.0033	-2694.21
0.9811,0.0189	-2709.35
0.9924,0.0076	-2699.63
0.9760,0.0240	-2710.05
0.9709,0.0291	-2728.49
0.9807,0.0193	-2717.26
0.9962,0.0038	-2694.23
0.9766,0.0234	-2728.62
0.9933,0.0067	-2709.58
0.9766,0.0234	-2728.62
0.9667,0.0333	-2732.00
0.9803,0.0197	-2709.45
0.9965,0.0035	-2699.85
0.9744,0.0256	-2721.24
0.9947,0.0053	-2704.83
0.9780,0.0220	-2709.76
0.9655,0.0345	-2732.04
0.9791,0.0209	-2705.76
0.9968,0.0032	-2699.96
0.9758,0.0242	-2721.18
0.9947,0.0053	-2694.38
0.9738,0.0262	-2732.11
0.9685,0.0315	-2725.12
0.9795,0.0205	-2717.28
0.9968,0.0032	-2688.47
0.9742,0.0258	-2746.66
0.9956,0.0044	-2688.84
0.9763,0.0237	-2717.45
0.9721,0.0279	-2721.38
0.9788,0.0212	-2701.97
0.9978,0.0022	-2688.16
0.9815,0.0185	-2713.28
0.9945,0.0055	-2689.19
0.9700,0.0300	-2735.46
0.9707,0.0293	-2728.49
0.9790,0.0210	-2705.77
0.9977,0.0023	-2688.19
0.9809,0.0191	-2717.25
0.9940,0.0060	-2689.36
0.9699,0.0301	-2725.03
0.9724,0.0276	-2724.92
0.9825,0.0175	-2705.18
0.9981,0.0019	-2688.04
0.9803,0.0197	-2713.35
0.9952,0.0048	-2694.31
0.9665,0.0335	-2715.20
0.9689,0.0311	-2725.10
0.9860,0.0140	-2708.97
0.9981,0.0019	-2694.31
0.9765,0.0235	-2706.24
0.9948,0.0052	-2694.36
0.9714,0.0286	-2721.43
0.9679,0.0321	-2725.17
0.9853,0.0147	-2717.41
0.9981,0.0019	-2688.05
0.9796,0.0204	-2721.15
0.9930,0.0070	-2699.60
0.9679,0.0321	-2714.95
0.9764,0.0236	-2724.88
0.9846,0.0154	-2700.72
0.9981,0.0019	-2688.06
0.9761,0.0239	-2710.04
0.9925,0.0075	-2709.40
0.9647,0.0353	-2735.38
0.9789,0.0211	-2701.94
0.9895,0.0105	-2709.00
0.9980,0.0020	-2688.08
0.9777,0.0223	-2713.58
0.9928,0.0072	-2699.61
0.9724,0.0276	-2732.04
0.9783,0.0217	-2705.89
0.9886,0.0114	-2704.50
0.9985,0.0015	-2694.43
0.9759,0.0241	-2713.77
0.9933,0.0067	-2694.58
0.9706,0.0294	-2728.49
0.9746,0.0254	-2717.58
0.9901,0.0099	-2695.24
0.9984,0.0016	-2694.39
0.9786,0.0214	-2705.84
0.9928,0.0072	-2689.75
0.9712,0.0288	-2728.48
0.9701,0.0299	-2728.50
0.9908,0.0092	-2704.44
0.9980,0.0020	-2694.29
0.9809,0.0191	-2721.19
0.9937,0.0063	-2694.52
0.9623,0.0377	-2735.43
0.9679,0.0321	-2738.79
0.9898,0.0102	-2695.29
0.9978,0.0022	-2694.26
0.9854,0.0146	-2725.85
0.9946,0.0054	-2699.60
0.9551,0.0449	-2738.91
0.9636,0.0364	-2735.39
0.9888,0.0112	-2704.49
0.9970,0.0030	-2700.02
0.9815,0.0185	-2721.22
0.9939,0.0061	-2699.58
0.9646,0.0354	-2735.38
0.9599,0.0401	-2719.65
0.9891,0.0109	-2699.97
0.9964,0.0036	-2694.22
0.9793,0.0207	-2728.85
0.9925,0.0075	-2699.62
0.9597,0.0403	-2729.20
0.9609,0.0391	-2716.28
0.9897,0.0103	-2704.45
0.9964,0.0036	-2694.22
0.9749,0.0251	-2728.53
0.9915,0.0085	-2713.97
0.9464,0.0536	-2736.78
0.9678,0.0322	-2745.59
0.9845,0.0155	-2713.20
0.9962,0.0038	-2688.65
0.9783,0.0217	-2713.52
0.9921,0.0079	-2694.81
0.9488,0.0512	-2739.41
0.9673,0.0327	-2725.21
0.9845,0.0155	-2721.50
0.9957,0.0043	-2694.26
0.9773,0.0227	-2709.85
0.9898,0.0102	-2695.29
0.9522,0.0478	-2733.12
0.9610,0.0390	-2735.48
0.9837,0.0163	-2725.50
0.9950,0.0050	-2694.34
0.9743,0.0257	-2732.14
0.9889,0.0111	-2713.46
0.9530,0.0470	-2742.06
0.9532,0.0468	-2739.04
0.9856,0.0144	-2708.99
0.9946,0.0054	-2689.18
0.9716,0.0284	-2735.55
0.9907,0.0093	-2699.77
0.9550,0.0450	-2745.03
0.9505,0.0495	-2721.51
0.9824,0.0176	-2721.29
0.9947,0.0053	-2694.37
0.9674,0.0326	-2721.82
0.9899,0.0101	-2695.28
0.9549,0.0451	-2735.87
0.9533,0.0467	-2739.03
0.9840,0.0160	-2721.44
0.9938,0.0062	-2704.67
0.9739,0.0261	-2728.50
0.9908,0.0092	-2713.79
0.9546,0.0454	-2723.72
0.9467,0.0533	-2765.51
0.9816,0.0184	-2701.36
0.9947,0.0053	-2689.15
0.9690,0.0310	-2714.77
0.9887,0.0113	-2704.49
0.9555,0.0445	-2735.83
0.9539,0.0461	-2748.08
0.9850,0.0150	-2729.95
0.9938,0.0062	-2704.66
0.9658,0.0342	-2728.68
0.9888,0.0112	-2717.94
0.9452,0.0548	-2756.87
0.9503,0.0497	-2748.12
0.9821,0.0179	-2705.25
0.9945,0.0055	-2699.60
0.9658,0.0342	-2738.71
0.9856,0.0144	-2700.53
0.9413,0.0587	-2745.80
0.9545,0.0455	-2735.90
0.9826,0.0174	-2713.23
0.9949,0.0051	-2689.07
0.9654,0.0346	-2755.35
0.9837,0.0163	-2700.90
0.9466,0.0534	-2745.38
0.9444,0.0556	-2759.70
0.9841,0.0159	-2700.82
0.9958,0.0042	-2705.18
0.9690,0.0310	-2721.65
0.9853,0.0147	-2704.79
0.9656,0.0344	-2728.70
0.9586,0.0414	-2732.46
0.9843,0.0157	-2700.79
0.9950,0.0050	-2689.06
0.9731,0.0269	-2728.49
0.9884,0.0116	-2726.75
0.9666,0.0334	-2732.01
0.9587,0.0413	-2729.31
0.9805,0.0195	-2717.26
0.9942,0.0058	-2699.59
0.9716,0.0284	-2721.41
0.9903,0.0097	-2713.68
0.9747,0.0253	-2721.22
0.9641,0.0359	-2715.64
0.9767,0.0233	-2728.62
0.9937,0.0063	-2689.47
0.9759,0.0241	-2713.77
0.9917,0.0083	-2704.46
0.9767,0.0233	-2717.41
0.9531,0.0469	-2751.09
0.9767,0.0233	-2713.68
0.9943,0.0057	-2699.59
0.9749,0.0251	-2713.89
0.9907,0.0093	-2713.78
0.9769,0.0231	-2736.12
0.9549,0.0451	-2723.67
0.9765,0.0235	-2717.43
0.9956,0.0044	-2694.28
0.9727,0.0273	-2717.76
0.9911,0.0089	-2704.44
0.9770,0.0230	-2706.15
0.9649,0.0351	-2738.69
0.9678,0.0322	-2728.58
0.9959,0.0041	-2694.25
0.9692,0.0308	-2725.08
0.9895,0.0105	-2704.46
0.9782,0.0218	-2713.53
0.9697,0.0303	-2745.83
0.9631,0.0369	-2735.41
0.9965,0.0035	-2694.21
0.9625,0.0375	-2738.67
0.9890,0.0110	-2708.98
0.9812,0.0188	-2721.21
0.9746,0.0254	-2713.93
0.9641,0.0359	-2722.22
0.9978,0.0022	-2694.26
0.9632,0.0368	-2735.40
0.9913,0.0087	-2704.44
0.9831,0.0169	-2709.15
0.9686,0.0314	-2711.40
0.9654,0.0346	-2732.04
0.9978,0.0022	-2688.16
0.9671,0.0329	-2718.48
0.9917,0.0083	-2694.89
0.9840,0.0160	-2709.09
0.9667,0.0333	-2738.74
0.9630,0.0370	-2741.93
0.9978,0.0022	-2694.27
0.9683,0.0317	-2714.88
0.9915,0.0085	-2718.74
0.9872,0.0128	-2700.26
0.9696,0.0304	-2735.44
0.9717,0.0283	-2710.80
0.9980,0.0020	-2688.09
0.9635,0.0365	-2758.30
0.9900,0.0100	-2699.85
0.9876,0.0124	-2700.19
0.9737,0.0263	-2721.27
0.9757,0.0243	-2695.32
0.9983,0.0017	-2687.99
0.9681,0.0319	-2742.22
0.9907,0.0093	-2718.45
0.9881,0.0119	-2708.95
0.9702,0.0298	-2721.53
0.9778,0.0222	-2717.35
0.9976,0.0024	-2688.20
0.9730,0.0270	-2717.74
0.9909,0.0091	-2695.06
0.9896,0.0104	-2704.45
0.9640,0.0360	-2725.52
0.9748,0.0252	-2717.56
0.9981,0.0019	-2688.04
0.9714,0.0286	-2724.96
0.9910,0.0090	-2704.44
0.9899,0.0101	-2722.77
0.9616,0.0384	-2741.90
0.9777,0.0223	-2732.47
0.9982,0.0018	-2694.34
0.9750,0.0250	-2724.87
0.9890,0.0110	-2699.97
0.9858,0.0142	-2708.98
0.9526,0.0474	-2754.08
0.9801,0.0199	-2705.58
0.9984,0.0016	-2687.94
0.9747,0.0253	-2732.17
0.9878,0.0122	-2700.16
0.9810,0.0190	-2709.36
0.9551,0.0449	-2738.91
0.9787,0.0213	-2709.66
0.9982,0.0018	-2688.01
0.9691,0.0309	-2738.86
0.9887,0.0113	-2695.55
0.9786,0.0214	-2717.31
0.9503,0.0497	-2748.12
0.9808,0.0192	-2729.06
0.9981,0.0019	-2688.04
0.9741,0.0259	-2728.50
0.9873,0.0127	-2708.95
0.9786,0.0214	-2709.67
0.9387,0.0613	-2770.61
0.9791,0.0209	-2717.29
0.9982,0.0018	-2688.01
0.9806,0.0194	-2709.41
0.9858,0.0142	-2708.98
0.9781,0.0219	-2717.34
0.9398,0.0602	-2756.94
0.9811,0.0189	-2733.06
0.9983,0.0017	-2688.00
0.9771,0.0229	-2721.14
0.9896,0.0104	-2704.45
0.9778,0.0222	-2705.99
0.9458,0.0542	-2736.86
0.9772,0.0228	-2709.86
0.9983,0.0017	-2687.98
0.9772,0.0228	-2706.11
0.9913,0.0087	-2699.71
0.9776,0.0224	-2717.36
0.9378,0.0622	-2762.43
0.9784,0.0216	-2713.51
0.9982,0.0018	-2707.02
0.9768,0.0232	-2724.89
0.9901,0.0099	-2704.44
0.9737,0.0263	-2717.66
0.9414,0.0586	-2743.02
0.9779,0.0221	-2709.76
0.9979,0.0021	-2700.43
0.9805,0.0195	-2717.26
0.9887,0.0113	-2700.03
0.9797,0.0203	-2721.15
0.9454,0.0546	-2734.06
0.9792,0.0208	-2705.73
0.9974,0.0026	-2694.22
0.9784,0.0216	-2728.76
0.9883,0.0117	-2704.52
0.9792,0.0208	-2713.43
0.9460,0.0540	-2751.15
0.9778,0.0222	-2709.78
0.9975,0.0025	-2694.23
0.9756,0.0244	-2724.87
0.9893,0.0107	-2699.93
0.9775,0.0225	-2713.60
0.9471,0.0529	-2736.69
0.9802,0.0198	-2701.66
0.9973,0.0027	-2688.30
0.9798,0.0202	-2709.51
0.9890,0.0110	-2708.98
0.9780,0.0220	-2721.13
0.9540,0.0460	-2732.92
0.9791,0.0209	-2713.45
0.9969,0.0031	-2688.45
0.9840,0.0160	-2704.97
0.9853,0.0147	-2709.00
0.9754,0.0246	-2735.91
0.9535,0.0465	-2781.29
0.9814,0.0186	-2713.29
0.9972,0.0028	-2694.21
0.9844,0.0156	-2721.48
0.9836,0.0164	-2700.93
0.9798,0.0202	-2713.39
0.9534,0.0466	-2739.03
0.9816,0.0184	-2717.25
0.9964,0.0036	-2694.22
0.9822,0.0178	-2717.26
0.9838,0.0162	-2700.88
0.9823,0.0177	-2721.28
0.9515,0.0485	-2745.12
0.9814,0.0186	-2713.29
0.9961,0.0039	-2705.33
0.9776,0.0224	-2721.14
0.9848,0.0152	-2734.06
0.9760,0.0240	-2702.64
0.9489,0.0511	-2742.32
0.9861,0.0139	-2708.97
0.9966,0.0034	-2688.51
0.9824,0.0176	-2729.33
0.9848,0.0152	-2713.20
0.9760,0.0240	-2721.17
0.9376,0.0624	-2754.30
0.9854,0.0146	-2700.57
0.9970,0.0030	-2688.41
0.9827,0.0173	-2705.15
0.9823,0.0177	-2717.26
0.9771,0.0229	-2709.89
0.9424,0.0576	-2759.68
0.9864,0.0136	-2696.11
0.9970,0.0030	-2688.41
0.9797,0.0203	-2728.91
0.9851,0.0149	-2717.39
0.9765,0.0235	-2724.88
0.9439,0.0561	-2748.40
0.9851,0.0149	-2709.01
0.9966,0.0034	-2694.21
0.9770,0.0230	-2717.40
0.9841,0.0159	-2700.82
0.9774,0.0226	-2706.06
0.9433,0.0567	-2734.38
0.9869,0.0131	-2700.31
0.9957,0.0043	-2699.71
0.9815,0.0185	-2717.25
0.9824,0.0176	-2713.24
0.9780,0.0220	-2717.34
0.9411,0.0589	-2759.67
0.9870,0.0130	-2721.95
0.9963,0.0037	-2699.82
0.9864,0.0136	-2700.39
0.9812,0.0188	-2709.34
0.9707,0.0293	-2714.48
0.9430,0.0570	-2742.84
0.9877,0.0123	-2717.72
0.9951,0.0049	-2689.00
0.9847,0.0153	-2725.70
0.9772,0.0228	-2713.62
0.9684,0.0316	-2721.71
0.9455,0.0545	-2759.72
0.9868,0.0132	-2708.95
0.9950,0.0050	-2689.06
0.9828,0.0172	-2709.18
0.9820,0.0180	-2717.26
0.9706,0.0294	-2724.99
0.9391,0.0609	-2756.96
0.9846,0.0154	-2709.05
0.9956,0.0044	-2688.85
0.9775,0.0225	-2713.59
0.9807,0.0193	-2705.47
0.9635,0.0365	-2719.03
0.9275,0.0725	-2762.75
