#isoforms=['ENSG00000186575.SE.4.A.up_ENSG00000186575.SE.4.A.SE1_ENSG00000186575.SE.4.A.dn','ENSG00000186575.SE.4.B.up_ENSG00000186575.SE.4.B.dn']	exon_lens=('ENSG00000186575.SE.4.A.up',128),('ENSG00000186575.SE.4.A.SE1',163),('ENSG00000186575.SE.4.A.dn',3847),('ENSG00000186575.SE.4.B.up',128),('ENSG00000186575.SE.4.B.dn',194)	iters=5000	burn_in=500	lag=10	percent_accept=95.94	proposal_type=drift	counts=(0,0):1071,(1,0):2588,(1,1):118	assigned_counts=0:2706	chrom=chr22	strand=+	mRNA_starts=29678196,29678196	mRNA_ends=29698598,29694945
sampled_psi	log_score
0.9281,0.0719	-22498.69
0.9434,0.0566	-22489.45
0.8984,0.1016	-22529.65
0.9652,0.0348	-22494.58
0.9646,0.0354	-22481.34
0.9734,0.0266	-22480.55
0.9460,0.0540	-22497.81
0.9396,0.0604	-22487.06
0.9224,0.0776	-22504.05
0.9660,0.0340	-22494.60
0.9607,0.0393	-22488.15
0.9679,0.0321	-22477.62
0.9471,0.0529	-22489.12
0.9379,0.0621	-22514.41
0.9221,0.0779	-22506.54
0.9696,0.0304	-22484.33
0.9653,0.0347	-22487.93
0.9609,0.0391	-22478.53
0.9489,0.0511	-22491.89
0.9302,0.0698	-22490.79
0.9378,0.0622	-22498.12
0.9695,0.0305	-22480.88
0.9709,0.0291	-22487.77
0.9536,0.0464	-22500.70
0.9491,0.0509	-22497.73
0.9277,0.0723	-22498.72
0.9273,0.0727	-22508.93
0.9702,0.0298	-22480.81
0.9687,0.0313	-22480.95
0.9469,0.0531	-22503.54
0.9619,0.0381	-22491.31
0.9331,0.0669	-22498.38
0.9056,0.0944	-22507.36
0.9660,0.0340	-22477.87
0.9688,0.0312	-22487.81
0.9420,0.0580	-22486.79
0.9676,0.0324	-22477.66
0.9419,0.0581	-22492.37
0.9152,0.0848	-22499.68
0.9678,0.0322	-22487.84
0.9650,0.0350	-22481.31
0.9423,0.0577	-22506.31
0.9715,0.0285	-22487.76
0.9369,0.0631	-22498.17
0.9327,0.0673	-22487.88
0.9672,0.0328	-22484.48
0.9566,0.0434	-22494.58
0.9407,0.0593	-22509.05
0.9674,0.0326	-22487.85
0.9476,0.0524	-22483.29
0.9319,0.0681	-22511.53
0.9716,0.0284	-22484.23
0.9583,0.0417	-22491.42
0.9355,0.0645	-22495.57
0.9633,0.0367	-22484.75
0.9524,0.0476	-22494.69
0.9190,0.0810	-22509.08
0.9700,0.0300	-22480.83
0.9636,0.0364	-22484.73
0.9449,0.0551	-22500.68
0.9708,0.0292	-22473.75
0.9597,0.0403	-22481.87
0.9223,0.0777	-22501.58
0.9660,0.0340	-22481.21
0.9653,0.0347	-22481.28
0.9452,0.0548	-22500.68
0.9607,0.0393	-22484.96
0.9694,0.0306	-22484.34
0.9288,0.0712	-22501.21
0.9714,0.0286	-22480.71
0.9621,0.0379	-22481.60
0.9504,0.0496	-22488.85
0.9629,0.0371	-22491.29
0.9715,0.0285	-22491.29
0.9251,0.0749	-22501.41
0.9725,0.0275	-22484.19
0.9641,0.0359	-22481.40
0.9629,0.0371	-22488.03
0.9661,0.0339	-22487.90
0.9703,0.0297	-22480.81
0.9255,0.0745	-22493.83
0.9758,0.0242	-22487.76
0.9666,0.0334	-22484.51
0.9636,0.0364	-22484.73
0.9628,0.0372	-22478.27
0.9704,0.0296	-22487.78
0.9363,0.0637	-22495.51
0.9784,0.0216	-22480.19
0.9667,0.0333	-22487.88
0.9514,0.0486	-22497.69
0.9645,0.0355	-22487.96
0.9731,0.0269	-22480.57
0.9364,0.0636	-22495.51
0.9786,0.0214	-22491.65
0.9680,0.0320	-22494.66
0.9442,0.0558	-22489.38
0.9624,0.0376	-22484.81
0.9728,0.0272	-22477.02
0.9444,0.0556	-22497.85
0.9794,0.0206	-22480.14
0.9681,0.0319	-22508.31
0.9375,0.0625	-22503.56
0.9595,0.0405	-22500.88
0.9712,0.0288	-22491.28
0.9398,0.0602	-22506.28
0.9828,0.0172	-22475.93
0.9635,0.0365	-22494.55
0.9195,0.0805	-22499.33
0.9564,0.0436	-22491.50
0.9741,0.0259	-22484.12
0.9447,0.0553	-22497.85
0.9896,0.0104	-22479.96
0.9631,0.0369	-22501.07
0.9179,0.0821	-22506.70
0.9536,0.0464	-22494.65
0.9769,0.0231	-22476.55
0.9522,0.0478	-22494.69
0.9906,0.0094	-22480.01
0.9542,0.0458	-22488.56
0.9416,0.0584	-22500.74
0.9565,0.0435	-22494.58
0.9754,0.0246	-22473.03
0.9487,0.0513	-22491.91
0.9901,0.0099	-22470.78
0.9692,0.0308	-22487.80
0.9348,0.0652	-22500.94
0.9595,0.0405	-22485.05
0.9741,0.0259	-22487.75
0.9382,0.0618	-22503.55
0.9901,0.0099	-22475.37
0.9699,0.0301	-22487.79
0.9338,0.0662	-22498.34
0.9655,0.0345	-22477.92
0.9692,0.0308	-22480.90
0.9479,0.0521	-22494.86
0.9913,0.0087	-22480.06
0.9743,0.0257	-22480.47
0.9433,0.0567	-22492.27
0.9548,0.0452	-22488.52
0.9721,0.0279	-22480.65
0.9479,0.0521	-22497.76
0.9910,0.0090	-22475.34
0.9717,0.0283	-22484.22
0.9540,0.0460	-22488.58
0.9661,0.0339	-22484.55
0.9650,0.0350	-22487.94
0.9538,0.0462	-22500.70
0.9904,0.0096	-22480.00
0.9711,0.0289	-22494.80
0.9554,0.0446	-22500.74
0.9692,0.0308	-22480.90
0.9645,0.0355	-22481.36
0.9484,0.0516	-22503.57
0.9888,0.0112	-22470.97
0.9715,0.0285	-22487.76
0.9594,0.0406	-22494.55
0.9656,0.0344	-22481.25
0.9663,0.0337	-22481.18
0.9398,0.0602	-22503.53
0.9850,0.0150	-22475.73
0.9807,0.0193	-22487.92
0.9553,0.0447	-22500.73
0.9546,0.0454	-22500.72
0.9671,0.0329	-22494.63
0.9344,0.0656	-22500.96
0.9843,0.0157	-22475.80
0.9805,0.0195	-22483.99
0.9385,0.0615	-22498.09
0.9461,0.0539	-22492.08
0.9645,0.0355	-22494.57
0.9359,0.0641	-22508.95
0.9871,0.0129	-22475.56
0.9817,0.0183	-22484.00
0.9261,0.0739	-22508.94
0.9502,0.0498	-22500.66
0.9664,0.0336	-22494.61
0.9155,0.0845	-22504.42
0.9896,0.0104	-22479.96
0.9854,0.0146	-22479.91
0.9465,0.0535	-22497.79
0.9498,0.0502	-22497.72
0.9685,0.0315	-22484.39
0.9169,0.0831	-22504.34
0.9883,0.0117	-22471.05
0.9836,0.0164	-22479.95
0.9432,0.0568	-22492.28
0.9517,0.0483	-22488.74
0.9689,0.0311	-22480.94
0.9244,0.0756	-22503.96
0.9888,0.0112	-22470.96
0.9851,0.0149	-22471.54
0.9444,0.0556	-22497.86
0.9449,0.0551	-22495.00
0.9674,0.0326	-22494.64
0.9347,0.0653	-22498.28
0.9865,0.0135	-22475.61
0.9873,0.0127	-22475.55
0.9512,0.0488	-22500.67
0.9413,0.0587	-22500.74
0.9709,0.0291	-22484.26
0.9389,0.0611	-22492.61
0.9862,0.0138	-22479.90
0.9879,0.0121	-22479.91
0.9594,0.0406	-22488.22
0.9433,0.0567	-22497.89
0.9693,0.0307	-22480.90
0.9455,0.0545	-22500.67
0.9832,0.0168	-22471.83
0.9844,0.0156	-22488.22
0.9551,0.0449	-22485.44
0.9378,0.0622	-22489.99
0.9686,0.0314	-22494.68
0.9495,0.0505	-22500.66
0.9822,0.0178	-22471.98
0.9851,0.0149	-22479.92
0.9378,0.0622	-22498.13
0.9425,0.0575	-22511.91
0.9692,0.0308	-22487.80
0.9631,0.0369	-22488.03
0.9827,0.0173	-22479.98
0.9886,0.0114	-22479.92
0.9493,0.0507	-22497.73
0.9476,0.0524	-22486.18
0.9726,0.0274	-22484.18
0.9616,0.0384	-22491.32
0.9872,0.0128	-22475.56
0.9877,0.0123	-22471.13
0.9430,0.0570	-22492.29
0.9536,0.0464	-22488.61
0.9761,0.0239	-22498.89
0.9605,0.0395	-22491.35
0.9878,0.0122	-22475.51
0.9884,0.0116	-22475.47
0.9345,0.0655	-22498.30
0.9589,0.0411	-22488.25
0.9787,0.0213	-22484.00
0.9647,0.0353	-22491.26
0.9877,0.0123	-22471.13
0.9898,0.0102	-22475.39
0.9493,0.0507	-22497.73
0.9566,0.0434	-22494.58
0.9816,0.0184	-22476.05
0.9644,0.0356	-22491.27
0.9878,0.0122	-22475.52
0.9908,0.0092	-22480.02
0.9549,0.0451	-22500.72
0.9593,0.0407	-22497.71
0.9774,0.0226	-22472.72
0.9652,0.0348	-22491.26
0.9870,0.0130	-22475.57
0.9912,0.0088	-22480.06
0.9604,0.0396	-22484.98
0.9622,0.0378	-22494.54
0.9771,0.0229	-22476.52
0.9697,0.0303	-22484.32
0.9839,0.0161	-22471.72
0.9903,0.0097	-22470.74
0.9561,0.0439	-22509.99
0.9597,0.0403	-22494.55
0.9749,0.0251	-22484.09
0.9695,0.0305	-22491.25
0.9815,0.0185	-22484.00
0.9887,0.0113	-22475.45
0.9582,0.0418	-22500.82
0.9632,0.0368	-22478.23
0.9634,0.0366	-22494.55
0.9732,0.0268	-22480.56
0.9867,0.0133	-22471.29
0.9895,0.0105	-22475.41
0.9631,0.0369	-22488.03
0.9638,0.0362	-22504.41
0.9654,0.0346	-22491.25
0.9756,0.0244	-22487.76
0.9831,0.0169	-22475.90
0.9891,0.0109	-22475.43
0.9551,0.0449	-22503.78
0.9518,0.0482	-22491.72
0.9530,0.0470	-22494.67
0.9747,0.0253	-22480.44
0.9797,0.0203	-22495.63
0.9843,0.0157	-22475.80
0.9567,0.0433	-22497.68
0.9615,0.0385	-22488.10
0.9537,0.0463	-22482.55
0.9719,0.0281	-22484.21
0.9860,0.0140	-22479.90
0.9854,0.0146	-22484.12
0.9581,0.0419	-22497.69
0.9618,0.0382	-22491.32
0.9559,0.0441	-22509.97
0.9767,0.0233	-22476.57
0.9860,0.0140	-22475.65
0.9855,0.0145	-22471.47
0.9541,0.0459	-22491.60
0.9613,0.0387	-22491.33
0.9597,0.0403	-22485.04
0.9698,0.0302	-22480.85
0.9809,0.0191	-22476.12
0.9844,0.0156	-22488.21
0.9619,0.0381	-22494.54
0.9569,0.0431	-22497.68
0.9569,0.0431	-22494.58
0.9692,0.0308	-22487.80
0.9816,0.0184	-22480.02
0.9834,0.0166	-22471.80
0.9679,0.0321	-22477.62
0.9532,0.0468	-22488.63
0.9615,0.0385	-22481.68
0.9612,0.0388	-22491.33
0.9824,0.0176	-22492.06
0.9834,0.0166	-22484.04
0.9638,0.0362	-22487.99
0.9584,0.0416	-22500.83
0.9516,0.0484	-22479.82
0.9596,0.0404	-22488.21
0.9820,0.0180	-22472.01
0.9884,0.0116	-22471.03
0.9581,0.0419	-22491.43
0.9542,0.0458	-22482.49
0.9503,0.0497	-22500.66
0.9670,0.0330	-22481.11
0.9758,0.0242	-22480.36
0.9913,0.0087	-22480.06
0.9594,0.0406	-22494.55
0.9646,0.0354	-22487.96
0.9422,0.0578	-22503.52
0.9667,0.0333	-22487.88
0.9755,0.0245	-22484.07
0.9908,0.0092	-22470.66
0.9597,0.0403	-22488.21
0.9632,0.0368	-22488.02
0.9521,0.0479	-22479.75
0.9673,0.0327	-22487.86
0.9803,0.0197	-22487.90
0.9874,0.0126	-22479.90
0.9644,0.0356	-22487.97
0.9647,0.0353	-22484.65
0.9549,0.0451	-22485.46
0.9663,0.0337	-22497.96
0.9826,0.0174	-22488.05
0.9868,0.0132	-22475.59
0.9563,0.0437	-22488.42
0.9621,0.0379	-22475.15
0.9542,0.0458	-22494.64
0.9668,0.0332	-22504.73
0.9845,0.0155	-22475.78
0.9859,0.0141	-22479.91
0.9627,0.0373	-22491.30
0.9586,0.0414	-22494.55
0.9523,0.0477	-22491.70
0.9676,0.0324	-22498.04
0.9843,0.0157	-22475.80
0.9843,0.0157	-22484.07
0.9652,0.0348	-22494.58
0.9628,0.0372	-22488.04
0.9553,0.0447	-22494.61
0.9729,0.0271	-22484.17
0.9832,0.0168	-22488.10
0.9806,0.0194	-22476.15
0.9618,0.0382	-22497.77
0.9653,0.0347	-22487.93
0.9609,0.0391	-22488.14
0.9724,0.0276	-22494.88
0.9754,0.0246	-22495.11
0.9782,0.0218	-22480.21
0.9580,0.0420	-22494.56
0.9594,0.0406	-22488.22
0.9685,0.0315	-22484.39
0.9673,0.0327	-22481.08
0.9784,0.0216	-22476.38
0.9720,0.0280	-22487.76
0.9580,0.0420	-22488.31
0.9491,0.0509	-22491.88
0.9671,0.0329	-22484.48
0.9667,0.0333	-22481.14
0.9761,0.0239	-22484.05
0.9728,0.0272	-22480.59
0.9448,0.0552	-22500.68
0.9433,0.0567	-22495.08
0.9557,0.0443	-22491.53
0.9666,0.0334	-22497.98
0.9753,0.0247	-22480.40
0.9742,0.0258	-22484.11
0.9245,0.0755	-22496.44
0.9479,0.0521	-22500.66
0.9620,0.0380	-22497.78
0.9668,0.0332	-22491.25
0.9776,0.0224	-22476.47
0.9714,0.0286	-22498.34
0.9377,0.0623	-22506.26
0.9524,0.0476	-22500.68
0.9659,0.0341	-22494.59
0.9672,0.0328	-22481.09
0.9822,0.0178	-22475.99
0.9702,0.0298	-22477.34
0.9431,0.0569	-22492.28
0.9353,0.0647	-22519.62
0.9666,0.0334	-22484.51
0.9622,0.0378	-22488.07
0.9855,0.0145	-22488.34
0.9804,0.0196	-22480.08
0.9497,0.0503	-22497.72
0.9255,0.0745	-22503.91
0.9740,0.0260	-22498.62
0.9525,0.0475	-22497.68
0.9866,0.0134	-22484.20
0.9823,0.0177	-22479.99
0.9585,0.0415	-22478.85
0.9332,0.0668	-22498.37
0.9744,0.0256	-22476.82
0.9374,0.0626	-22490.02
0.9840,0.0160	-22475.82
0.9863,0.0137	-22488.45
0.9598,0.0402	-22485.03
0.9290,0.0710	-22501.20
0.9704,0.0296	-22494.76
0.9365,0.0635	-22487.42
0.9867,0.0133	-22475.60
0.9883,0.0117	-22484.35
0.9585,0.0415	-22488.28
0.9159,0.0841	-22513.95
0.9667,0.0333	-22487.88
0.9504,0.0496	-22491.80
0.9866,0.0134	-22471.31
0.9893,0.0107	-22498.04
0.9587,0.0413	-22507.13
0.9224,0.0776	-22521.38
0.9654,0.0346	-22491.25
0.9591,0.0409	-22481.93
0.9848,0.0152	-22475.75
0.9884,0.0116	-22471.03
0.9716,0.0284	-22487.76
0.9273,0.0727	-22501.29
0.9689,0.0311	-22491.25
0.9569,0.0431	-22482.18
0.9874,0.0126	-22479.90
0.9890,0.0110	-22479.93
0.9684,0.0316	-22484.40
0.9088,0.0912	-22507.16
0.9750,0.0250	-22491.41
0.9556,0.0444	-22497.67
0.9901,0.0099	-22470.77
0.9888,0.0112	-22479.93
0.9729,0.0271	-22477.01
0.9013,0.0987	-22505.43
0.9655,0.0345	-22481.26
0.9639,0.0361	-22487.99
0.9880,0.0120	-22471.09
0.9886,0.0114	-22475.46
0.9677,0.0323	-22481.05
0.9126,0.0874	-22495.22
0.9669,0.0331	-22487.87
0.9683,0.0317	-22491.25
0.9865,0.0135	-22475.61
0.9861,0.0139	-22479.90
0.9747,0.0253	-22491.40
0.9205,0.0795	-22501.69
0.9653,0.0347	-22487.93
0.9686,0.0314	-22487.82
0.9875,0.0125	-22493.02
0.9832,0.0168	-22479.96
0.9769,0.0231	-22484.03
0.9145,0.0855	-22499.75
0.9627,0.0373	-22497.80
0.9754,0.0246	-22473.04
0.9869,0.0131	-22475.58
0.9833,0.0167	-22484.04
0.9794,0.0206	-22484.00
0.9151,0.0849	-22516.34
0.9659,0.0341	-22491.25
0.9713,0.0287	-22480.72
0.9870,0.0130	-22475.57
0.9814,0.0186	-22476.07
0.9751,0.0249	-22491.42
0.9146,0.0854	-22516.34
0.9666,0.0334	-22497.98
0.9711,0.0289	-22477.22
0.9875,0.0125	-22479.91
0.9837,0.0163	-22488.15
0.9783,0.0217	-22476.39
0.9028,0.0972	-22509.77
0.9673,0.0327	-22484.47
0.9709,0.0291	-22484.26
0.9892,0.0108	-22475.43
0.9825,0.0175	-22484.02
0.9816,0.0184	-22476.05
0.8855,0.1145	-22510.96
0.9805,0.0195	-22487.91
0.9750,0.0250	-22480.43
0.9903,0.0097	-22479.99
0.9772,0.0228	-22487.78
0.9787,0.0213	-22484.00
0.9099,0.0901	-22511.73
0.9802,0.0198	-22483.99
0.9726,0.0274	-22487.75
0.9915,0.0085	-22475.32
0.9829,0.0171	-22488.08
0.9805,0.0195	-22480.08
0.9168,0.0832	-22501.95
0.9753,0.0247	-22480.40
0.9739,0.0261	-22484.13
0.9906,0.0094	-22475.35
0.9801,0.0199	-22480.10
0.9849,0.0151	-22492.45
0.9184,0.0816	-22516.36
0.9681,0.0319	-22487.83
0.9744,0.0256	-22484.11
0.9907,0.0093	-22475.35
0.9840,0.0160	-22484.06
0.9873,0.0127	-22479.90
0.9399,0.0601	-22498.03
0.9678,0.0322	-22481.04
0.9743,0.0257	-22476.84
0.9907,0.0093	-22480.02
0.9781,0.0219	-22476.41
0.9892,0.0108	-22470.90
0.9420,0.0580	-22497.94
0.9609,0.0391	-22504.14
0.9787,0.0213	-22480.17
0.9914,0.0086	-22494.32
0.9813,0.0187	-22484.00
0.9894,0.0106	-22479.95
0.9521,0.0479	-22500.67
0.9486,0.0514	-22480.24
0.9816,0.0184	-22476.05
0.9914,0.0086	-22484.81
0.9773,0.0227	-22484.02
0.9884,0.0116	-22484.36
0.9356,0.0644	-22511.62
0.9374,0.0626	-22500.85
0.9788,0.0212	-22476.34
0.9908,0.0092	-22470.67
0.9705,0.0295	-22480.79
0.9889,0.0111	-22479.93
0.9161,0.0839	-22513.95
0.9364,0.0636	-22498.20
0.9796,0.0204	-22484.00
0.9919,0.0081	-22470.50
0.9671,0.0329	-22474.34
0.9873,0.0127	-22475.55
0.9180,0.0820	-22523.60
0.9398,0.0602	-22498.03
0.9803,0.0197	-22483.99
0.9910,0.0090	-22470.64
0.9668,0.0332	-22477.76
0.9864,0.0136	-22479.90
0.9152,0.0848	-22494.92
0.9357,0.0643	-22508.94
0.9799,0.0201	-22472.34
0.9904,0.0096	-22475.36
0.9681,0.0319	-22477.59
0.9861,0.0139	-22471.39
0.9276,0.0724	-22501.28
0.9395,0.0605	-22498.05
0.9810,0.0190	-22476.10
0.9891,0.0109	-22479.94
0.9711,0.0289	-22487.77
0.9865,0.0135	-22479.90
0.9286,0.0714	-22516.61
0.9360,0.0640	-22490.17
0.9790,0.0210	-22484.00
0.9902,0.0098	-22470.76
0.9680,0.0320	-22491.24
0.9887,0.0113	-22475.45
0.9241,0.0759	-22498.97
0.9359,0.0641	-22490.18
0.9792,0.0208	-22484.00
0.9918,0.0082	-22480.10
0.9725,0.0275	-22484.18
0.9900,0.0100	-22484.58
0.9235,0.0765	-22496.53
0.9412,0.0588	-22506.29
0.9794,0.0206	-22499.44
0.9904,0.0096	-22475.36
0.9733,0.0267	-22494.94
0.9881,0.0119	-22471.08
0.9361,0.0639	-22492.84
0.9475,0.0525	-22500.66
0.9789,0.0211	-22484.00
0.9901,0.0099	-22479.98
0.9726,0.0274	-22494.89
0.9825,0.0175	-22475.96
0.9301,0.0699	-22498.56
0.9578,0.0422	-22488.32
0.9792,0.0208	-22480.14
0.9897,0.0103	-22470.82
0.9801,0.0199	-22476.20
0.9762,0.0238	-22476.62
0.9230,0.0770	-22501.54
0.9470,0.0530	-22494.90
0.9774,0.0226	-22480.25
0.9884,0.0116	-22475.47
0.9839,0.0161	-22484.05
0.9771,0.0229	-22491.54
0.9241,0.0759	-22511.47
0.9560,0.0440	-22491.52
0.9801,0.0199	-22499.58
0.9900,0.0100	-22484.57
0.9872,0.0128	-22475.56
0.9742,0.0258	-22484.11
0.9292,0.0708	-22503.77
0.9562,0.0438	-22488.42
0.9773,0.0227	-22484.02
0.9906,0.0094	-22484.67
0.9840,0.0160	-22488.18
0.9678,0.0322	-22484.44
0.9413,0.0587	-22492.42
0.9500,0.0500	-22488.88
0.9793,0.0207	-22476.29
0.9897,0.0103	-22479.96
0.9812,0.0188	-22480.04
0.9725,0.0275	-22484.18
0.9364,0.0636	-22500.89
0.9537,0.0463	-22494.65
0.9762,0.0238	-22484.05
0.9898,0.0102	-22475.39
0.9771,0.0229	-22487.78
0.9771,0.0229	-22480.27
0.9454,0.0546	-22497.82
0.9485,0.0515	-22483.17
0.9771,0.0229	-22484.03
0.9896,0.0104	-22484.51
0.9783,0.0217	-22484.01
0.9749,0.0251	-22476.77
0.9446,0.0554	-22500.68
0.9459,0.0541	-22494.95
0.9724,0.0276	-22484.19
0.9900,0.0100	-22470.79
0.9767,0.0233	-22472.83
0.9804,0.0196	-22487.91
0.9418,0.0582	-22500.73
0.9508,0.0492	-22488.82
0.9790,0.0210	-22484.00
0.9896,0.0104	-22470.84
0.9780,0.0220	-22480.22
0.9759,0.0241	-22480.36
0.9343,0.0657	-22493.00
0.9635,0.0365	-22494.55
0.9730,0.0270	-22473.42
0.9884,0.0116	-22471.03
0.9773,0.0227	-22487.79
0.9766,0.0234	-22480.31
0.9407,0.0593	-22500.76
0.9625,0.0375	-22507.53
0.9710,0.0290	-22491.28
0.9892,0.0108	-22470.91
0.9776,0.0224	-22484.02
0.9763,0.0237	-22491.49
0.9507,0.0493	-22494.74
0.9593,0.0407	-22494.55
0.9689,0.0311	-22484.37
0.9898,0.0102	-22475.39
0.9833,0.0167	-22475.88
0.9746,0.0254	-22487.75
0.9468,0.0532	-22492.03
0.9555,0.0445	-22491.54
0.9721,0.0279	-22480.65
0.9910,0.0090	-22480.03
0.9789,0.0211	-22476.33
0.9644,0.0356	-22484.67
0.9399,0.0601	-22509.03
0.9508,0.0492	-22491.78
0.9714,0.0286	-22480.71
0.9916,0.0084	-22480.08
0.9814,0.0186	-22480.03
0.9613,0.0387	-22488.12
0.9527,0.0473	-22494.68
0.9535,0.0465	-22491.63
0.9732,0.0268	-22491.34
0.9921,0.0079	-22475.30
0.9760,0.0240	-22476.64
0.9656,0.0344	-22491.25
0.9660,0.0340	-22491.25
0.9510,0.0490	-22482.87
0.9670,0.0330	-22477.73
0.9921,0.0079	-22475.30
0.9809,0.0191	-22476.12
0.9578,0.0422	-22494.56
0.9740,0.0260	-22476.88
0.9597,0.0403	-22485.04
0.9635,0.0365	-22494.55
0.9912,0.0088	-22484.77
0.9759,0.0241	-22484.06
0.9598,0.0402	-22500.89
0.9678,0.0322	-22481.03
0.9583,0.0417	-22488.29
0.9686,0.0314	-22477.53
0.9922,0.0078	-22494.71
0.9781,0.0219	-22480.21
0.9580,0.0420	-22488.31
0.9692,0.0308	-22494.70
0.9456,0.0544	-22492.10
0.9680,0.0320	-22484.43
0.9923,0.0077	-22470.44
0.9765,0.0235	-22484.04
0.9558,0.0442	-22491.53
0.9727,0.0273	-22484.17
0.9500,0.0500	-22488.88
0.9669,0.0331	-22481.12
0.9908,0.0092	-22475.35
0.9758,0.0242	-22480.36
0.9641,0.0359	-22497.85
0.9692,0.0308	-22480.91
0.9452,0.0548	-22489.29
0.9690,0.0310	-22498.14
0.9897,0.0103	-22475.40
0.9740,0.0260	-22476.88
0.9724,0.0276	-22487.75
0.9746,0.0254	-22480.45
0.9501,0.0499	-22482.98
0.9673,0.0327	-22491.24
0.9902,0.0098	-22470.76
0.9741,0.0259	-22487.75
0.9735,0.0265	-22491.35
0.9755,0.0245	-22484.07
0.9561,0.0439	-22488.43
0.9721,0.0279	-22487.75
0.9903,0.0097	-22470.74
0.9701,0.0299	-22491.26
0.9737,0.0263	-22476.91
0.9766,0.0234	-22480.31
0.9617,0.0383	-22500.99
0.9640,0.0360	-22481.41
0.9887,0.0113	-22470.98
0.9717,0.0283	-22480.68
0.9696,0.0304	-22491.26
0.9769,0.0231	-22491.52
0.9651,0.0349	-22477.98
0.9659,0.0341	-22501.28
0.9885,0.0115	-22479.92
0.9669,0.0331	-22487.87
0.9785,0.0215	-22484.00
0.9751,0.0249	-22491.42
0.9660,0.0340	-22484.56
0.9566,0.0434	-22500.77
0.9862,0.0138	-22475.63
0.9695,0.0305	-22491.26
0.9771,0.0229	-22476.52
0.9743,0.0257	-22487.75
0.9651,0.0349	-22487.94
0.9508,0.0492	-22491.78
0.9879,0.0121	-22471.11
0.9706,0.0294	-22491.27
0.9792,0.0208	-22480.15
0.9661,0.0339	-22487.90
0.9680,0.0320	-22494.65
0.9479,0.0521	-22497.76
0.9909,0.0091	-22470.66
0.9756,0.0244	-22495.13
0.9816,0.0184	-22480.03
0.9645,0.0355	-22481.36
0.9685,0.0315	-22491.25
0.9341,0.0659	-22485.06
0.9888,0.0112	-22475.45
0.9778,0.0222	-22476.44
0.9832,0.0168	-22484.03
0.9688,0.0312	-22480.94
0.9719,0.0281	-22477.12
0.9221,0.0779	-22511.48
0.9915,0.0085	-22475.32
0.9805,0.0195	-22472.24
0.9845,0.0155	-22479.93
0.9582,0.0418	-22488.29
0.9726,0.0274	-22480.61
0.9382,0.0618	-22492.66
0.9902,0.0098	-22475.37
0.9763,0.0237	-22484.05
0.9859,0.0141	-22479.91
0.9479,0.0521	-22503.56
0.9682,0.0318	-22480.99
0.9422,0.0578	-22503.52
0.9864,0.0136	-22471.33
0.9799,0.0201	-22480.11
0.9879,0.0121	-22484.32
0.9424,0.0576	-22495.13
0.9655,0.0345	-22481.26
0.9341,0.0659	-22490.36
0.9904,0.0096	-22470.72
0.9805,0.0195	-22472.24
0.9882,0.0118	-22475.48
0.9423,0.0577	-22495.14
0.9690,0.0310	-22484.37
0.9402,0.0598	-22503.53
0.9900,0.0100	-22475.38
0.9804,0.0196	-22476.16
0.9863,0.0137	-22484.18
0.9378,0.0622	-22495.41
0.9755,0.0245	-22487.75
0.9322,0.0678	-22501.05
0.9910,0.0090	-22475.34
0.9807,0.0193	-22472.21
0.9868,0.0132	-22479.90
0.9428,0.0572	-22503.52
0.9781,0.0219	-22484.01
0.9273,0.0727	-22501.29
0.9921,0.0079	-22470.47
0.9808,0.0192	-22487.93
0.9853,0.0147	-22475.71
0.9499,0.0501	-22494.77
0.9821,0.0179	-22484.01
0.9334,0.0666	-22498.36
0.9906,0.0094	-22475.35
0.9815,0.0185	-22476.06
0.9832,0.0168	-22475.90
0.9586,0.0414	-22488.27
0.9860,0.0140	-22471.39
0.9336,0.0664	-22493.06
0.9907,0.0093	-22480.02
0.9804,0.0196	-22476.16
0.9826,0.0174	-22488.05
0.9557,0.0443	-22494.60
0.9876,0.0124	-22479.91
0.9320,0.0680	-22503.68
0.9920,0.0080	-22484.95
0.9741,0.0259	-22484.12
0.9782,0.0218	-22472.60
0.9554,0.0446	-22491.54
0.9904,0.0096	-22480.00
0.9326,0.0674	-22493.16
0.9918,0.0082	-22480.10
0.9768,0.0232	-22476.56
0.9763,0.0237	-22487.77
0.9563,0.0437	-22491.50
0.9919,0.0081	-22475.31
0.9451,0.0549	-22494.99
0.9921,0.0079	-22470.47
0.9688,0.0312	-22480.95
0.9817,0.0183	-22472.05
0.9607,0.0393	-22497.74
0.9920,0.0080	-22470.48
0.9383,0.0617	-22498.10
0.9895,0.0105	-22479.96
0.9704,0.0296	-22494.76
0.9831,0.0169	-22475.90
0.9629,0.0371	-22491.29
0.9919,0.0081	-22475.31
0.9294,0.0706	-22498.60
0.9899,0.0101	-22479.97
0.9724,0.0276	-22477.06
0.9839,0.0161	-22479.94
0.9654,0.0346	-22484.60
0.9930,0.0070	-22475.29
0.9255,0.0745	-22493.83
0.9906,0.0094	-22475.35
0.9694,0.0306	-22477.43
0.9880,0.0120	-22493.13
0.9647,0.0353	-22494.57
0.9949,0.0051	-22475.32
0.9363,0.0637	-22506.26
0.9927,0.0073	-22480.21
0.9677,0.0323	-22487.85
0.9863,0.0137	-22479.90
0.9635,0.0365	-22491.28
0.9940,0.0060	-22475.29
0.9414,0.0586	-22492.41
0.9925,0.0075	-22470.41
0.9562,0.0438	-22488.42
0.9874,0.0126	-22479.90
0.9703,0.0297	-22484.29
0.9952,0.0048	-22470.01
0.9364,0.0636	-22498.20
0.9940,0.0060	-22470.18
0.9563,0.0437	-22497.67
0.9909,0.0091	-22484.72
0.9697,0.0303	-22487.79
0.9953,0.0047	-22469.99
0.9351,0.0649	-22487.59
0.9931,0.0069	-22475.29
0.9636,0.0364	-22481.45
0.9928,0.0072	-22475.29
0.9731,0.0269	-22480.57
0.9967,0.0033	-22469.78
0.9178,0.0822	-22501.88
0.9931,0.0069	-22470.32
0.9688,0.0312	-22487.81
0.9930,0.0070	-22480.25
0.9743,0.0257	-22487.75
0.9969,0.0031	-22469.74
0.9254,0.0746	-22506.43
0.9918,0.0082	-22480.11
0.9688,0.0312	-22501.55
0.9949,0.0051	-22470.05
0.9746,0.0254	-22476.81
0.9969,0.0031	-22469.74
0.9407,0.0593	-22509.05
0.9926,0.0074	-22475.29
0.9628,0.0372	-22481.53
0.9947,0.0053	-22470.07
0.9777,0.0223	-22476.46
0.9978,0.0022	-22469.62
0.9362,0.0638	-22487.46
0.9946,0.0054	-22470.09
0.9656,0.0344	-22487.92
0.9954,0.0046	-22469.98
0.9774,0.0226	-22476.49
0.9971,0.0029	-22469.72
0.9426,0.0574	-22495.12
0.9933,0.0067	-22475.29
0.9639,0.0361	-22491.27
0.9947,0.0053	-22470.08
0.9777,0.0223	-22484.02
0.9969,0.0031	-22475.52
0.9322,0.0678	-22508.91
0.9925,0.0075	-22480.17
0.9640,0.0360	-22491.27
0.9937,0.0063	-22470.22
0.9763,0.0237	-22476.62
0.9966,0.0034	-22469.79
0.9473,0.0527	-22491.99
0.9917,0.0083	-22480.10
0.9536,0.0464	-22497.67
0.9934,0.0066	-22475.29
0.9727,0.0273	-22480.60
0.9967,0.0033	-22469.78
0.9460,0.0540	-22500.67
0.9908,0.0092	-22470.66
0.9665,0.0335	-22494.61
0.9947,0.0053	-22470.07
0.9784,0.0216	-22499.26
0.9976,0.0024	-22475.66
0.9537,0.0463	-22494.65
0.9924,0.0076	-22470.42
0.9696,0.0304	-22487.79
0.9938,0.0062	-22480.37
0.9811,0.0189	-22484.00
0.9977,0.0023	-22469.62
0.9446,0.0554	-22509.19
0.9927,0.0073	-22470.38
0.9734,0.0266	-22484.15
0.9953,0.0047	-22475.34
0.9828,0.0172	-22479.98
0.9976,0.0024	-22469.65
0.9508,0.0492	-22485.85
0.9932,0.0068	-22470.31
0.9774,0.0226	-22480.25
0.9958,0.0042	-22469.91
0.9837,0.0163	-22484.05
0.9972,0.0028	-22469.70
0.9576,0.0424	-22488.34
0.9930,0.0070	-22475.29
0.9755,0.0245	-22487.75
0.9964,0.0036	-22475.44
0.9843,0.0157	-22479.93
0.9971,0.0029	-22469.71
0.9546,0.0454	-22491.58
0.9927,0.0073	-22475.29
0.9784,0.0216	-22480.19
0.9958,0.0042	-22469.91
0.9790,0.0210	-22484.00
0.9972,0.0028	-22469.71
0.9457,0.0543	-22492.10
0.9926,0.0074	-22485.09
0.9782,0.0218	-22480.20
0.9956,0.0044	-22469.94
0.9783,0.0217	-22484.01
0.9970,0.0030	-22469.73
0.9347,0.0653	-22482.32
0.9925,0.0075	-22475.29
0.9751,0.0249	-22476.75
0.9939,0.0061	-22475.29
0.9826,0.0174	-22471.91
0.9978,0.0022	-22469.62
0.9388,0.0612	-22517.19
0.9911,0.0089	-22475.33
0.9729,0.0271	-22477.01
0.9931,0.0069	-22470.32
0.9819,0.0181	-22484.01
0.9975,0.0025	-22475.64
0.9363,0.0637	-22487.45
0.9894,0.0106	-22484.49
0.9649,0.0351	-22491.26
0.9930,0.0070	-22485.19
0.9842,0.0158	-22475.80
0.9976,0.0024	-22469.64
0.9439,0.0561	-22489.40
0.9884,0.0116	-22484.37
0.9723,0.0277	-22487.75
0.9930,0.0070	-22485.21
0.9838,0.0162	-22479.95
0.9982,0.0018	-22469.56
0.9503,0.0497	-22497.71
0.9884,0.0116	-22471.02
0.9711,0.0289	-22498.31
0.9923,0.0077	-22470.44
0.9818,0.0182	-22480.02
0.9982,0.0018	-22469.55
0.9536,0.0464	-22488.60
0.9862,0.0138	-22479.90
0.9710,0.0290	-22484.26
0.9910,0.0090	-22470.63
0.9800,0.0200	-22487.88
0.9981,0.0019	-22469.57
0.9491,0.0509	-22494.81
0.9874,0.0126	-22471.19
0.9782,0.0218	-22487.81
0.9878,0.0122	-22471.12
0.9830,0.0170	-22475.91
0.9986,0.0014	-22476.06
0.9558,0.0442	-22488.45
0.9849,0.0151	-22475.74
0.9761,0.0239	-22476.64
0.9887,0.0113	-22488.88
0.9876,0.0124	-22484.28
0.9988,0.0012	-22469.46
0.9613,0.0387	-22494.54
0.9865,0.0135	-22488.49
0.9775,0.0225	-22491.56
0.9860,0.0140	-22492.67
0.9885,0.0115	-22475.47
0.9989,0.0011	-22469.45
0.9681,0.0319	-22498.07
0.9834,0.0166	-22479.96
0.9757,0.0243	-22484.06
0.9870,0.0130	-22475.57
0.9882,0.0118	-22484.34
0.9988,0.0012	-22476.21
0.9723,0.0277	-22477.08
0.9831,0.0169	-22475.90
0.9719,0.0281	-22487.76
0.9872,0.0128	-22479.90
0.9879,0.0121	-22484.31
0.9989,0.0011	-22469.45
0.9693,0.0307	-22477.44
0.9808,0.0192	-22480.06
0.9763,0.0237	-22495.20
0.9879,0.0121	-22475.51
0.9867,0.0133	-22471.29
0.9988,0.0012	-22476.20
0.9615,0.0385	-22478.46
0.9818,0.0182	-22480.02
0.9799,0.0201	-22480.11
0.9859,0.0141	-22471.40
0.9866,0.0134	-22484.20
0.9988,0.0012	-22469.46
0.9654,0.0346	-22501.24
0.9831,0.0169	-22488.09
0.9788,0.0212	-22480.17
0.9879,0.0121	-22488.72
0.9820,0.0180	-22476.01
0.9983,0.0017	-22469.54
0.9633,0.0367	-22501.09
0.9866,0.0134	-22484.20
0.9788,0.0212	-22476.34
0.9901,0.0099	-22475.38
0.9809,0.0191	-22480.06
0.9983,0.0017	-22475.92
0.9583,0.0417	-22503.96
0.9842,0.0158	-22471.66
0.9817,0.0183	-22472.05
0.9903,0.0097	-22470.74
0.9789,0.0211	-22480.16
0.9986,0.0014	-22469.49
0.9606,0.0394	-22494.54
0.9822,0.0178	-22475.98
0.9811,0.0189	-22480.05
0.9908,0.0092	-22475.35
0.9818,0.0182	-22476.02
0.9985,0.0015	-22469.51
0.9605,0.0395	-22488.16
0.9752,0.0248	-22495.09
0.9799,0.0201	-22476.22
0.9909,0.0091	-22470.66
0.9817,0.0183	-22476.04
0.9987,0.0013	-22469.48
0.9609,0.0391	-22484.93
0.9782,0.0218	-22476.40
0.9811,0.0189	-22487.95
0.9887,0.0113	-22484.39
0.9782,0.0218	-22487.81
0.9988,0.0012	-22469.46
0.9708,0.0292	-22480.77
0.9777,0.0223	-22484.02
0.9790,0.0210	-22480.16
0.9860,0.0140	-22479.90
0.9855,0.0145	-22475.69
0.9989,0.0011	-22476.22
0.9740,0.0260	-22484.12
0.9813,0.0187	-22480.04
0.9790,0.0210	-22472.47
0.9818,0.0182	-22472.03
0.9895,0.0105	-22475.41
0.9987,0.0013	-22469.48
0.9763,0.0237	-22491.49
0.9824,0.0176	-22492.06
0.9793,0.0207	-22484.00
0.9794,0.0206	-22495.58
0.9923,0.0077	-22475.30
0.9987,0.0013	-22469.47
0.9726,0.0274	-22480.61
0.9839,0.0161	-22488.17
0.9826,0.0174	-22479.98
0.9764,0.0236	-22495.21
0.9907,0.0093	-22475.35
0.9988,0.0012	-22469.47
0.9741,0.0259	-22484.12
0.9807,0.0193	-22487.92
0.9861,0.0139	-22475.64
0.9776,0.0224	-22476.46
0.9905,0.0095	-22470.71
0.9988,0.0012	-22469.47
0.9687,0.0313	-22487.82
0.9805,0.0195	-22483.99
0.9873,0.0127	-22488.61
0.9799,0.0201	-22487.88
0.9914,0.0086	-22475.32
0.9989,0.0011	-22469.45
0.9732,0.0268	-22484.15
0.9785,0.0215	-22480.18
0.9863,0.0137	-22484.18
0.9751,0.0249	-22480.41
0.9889,0.0111	-22475.44
0.9990,0.0010	-22469.44
0.9709,0.0291	-22487.77
0.9751,0.0249	-22476.75
0.9873,0.0127	-22475.55
0.9766,0.0234	-22495.23
0.9873,0.0127	-22479.90
0.9991,0.0009	-22469.42
0.9737,0.0263	-22480.53
0.9781,0.0219	-22484.01
0.9861,0.0139	-22479.90
0.9771,0.0229	-22484.03
0.9880,0.0120	-22471.10
0.9990,0.0010	-22469.43
0.9782,0.0218	-22491.61
0.9792,0.0208	-22484.00
0.9842,0.0158	-22475.81
0.9769,0.0231	-22484.03
0.9878,0.0122	-22471.12
0.9990,0.0010	-22469.44
0.9790,0.0210	-22476.32
0.9843,0.0157	-22475.79
0.9885,0.0115	-22475.47
0.9788,0.0212	-22487.83
0.9893,0.0107	-22470.89
0.9989,0.0011	-22469.44
0.9812,0.0188	-22476.09
0.9857,0.0143	-22475.67
0.9907,0.0093	-22475.35
0.9761,0.0239	-22484.05
0.9906,0.0094	-22484.67
0.9992,0.0008	-22469.41
0.9818,0.0182	-22480.02
0.9852,0.0148	-22475.71
0.9902,0.0098	-22484.60
0.9791,0.0209	-22487.84
0.9889,0.0111	-22475.44
0.9992,0.0008	-22469.40
0.9777,0.0223	-22484.02
0.9885,0.0115	-22475.47
0.9901,0.0099	-22475.38
0.9765,0.0235	-22491.49
0.9888,0.0112	-22475.45
0.9993,0.0007	-22469.38
0.9773,0.0227	-22487.79
0.9908,0.0092	-22480.02
0.9866,0.0134	-22479.90
0.9661,0.0339	-22491.25
0.9892,0.0108	-22479.94
0.9993,0.0007	-22469.39
0.9793,0.0207	-22484.00
0.9901,0.0099	-22470.76
0.9827,0.0173	-22484.02
0.9625,0.0375	-22481.56
0.9890,0.0110	-22479.94
0.9994,0.0006	-22476.83
0.9812,0.0188	-22480.04
0.9864,0.0136	-22479.90
0.9838,0.0162	-22479.95
0.9536,0.0464	-22488.60
0.9869,0.0131	-22479.90
0.9993,0.0007	-22469.38
0.9823,0.0177	-22484.01
0.9873,0.0127	-22471.20
0.9840,0.0160	-22496.41
0.9491,0.0509	-22500.66
0.9871,0.0129	-22471.23
0.9995,0.0005	-22469.36
0.9827,0.0173	-22479.98
0.9893,0.0107	-22484.47
0.9858,0.0142	-22484.15
0.9460,0.0540	-22506.39
0.9871,0.0129	-22479.90
0.9996,0.0004	-22469.35
0.9835,0.0165	-22479.95
0.9913,0.0087	-22475.33
0.9843,0.0157	-22471.65
0.9468,0.0532	-22497.78
0.9869,0.0131	-22475.58
0.9995,0.0005	-22469.35
0.9842,0.0158	-22479.93
0.9882,0.0118	-22471.07
0.9860,0.0140	-22479.90
0.9368,0.0632	-22492.78
0.9858,0.0142	-22479.91
0.9995,0.0005	-22469.36
0.9845,0.0155	-22479.93
0.9873,0.0127	-22475.55
0.9874,0.0126	-22475.54
0.9381,0.0619	-22503.55
0.9875,0.0125	-22484.28
0.9994,0.0006	-22469.38
0.9869,0.0131	-22479.90
0.9859,0.0141	-22479.91
0.9886,0.0114	-22479.92
0.9441,0.0559	-22503.52
0.9858,0.0142	-22479.91
0.9994,0.0006	-22469.38
0.9880,0.0120	-22471.09
0.9882,0.0118	-22471.06
0.9887,0.0113	-22475.46
0.9512,0.0488	-22500.67
0.9878,0.0122	-22479.91
0.9995,0.0005	-22469.37
0.9889,0.0111	-22475.44
0.9895,0.0105	-22475.41
0.9916,0.0084	-22475.32
0.9522,0.0478	-22500.68
0.9865,0.0135	-22475.61
0.9995,0.0005	-22469.36
0.9883,0.0117	-22471.05
0.9878,0.0122	-22475.51
0.9914,0.0086	-22480.07
0.9567,0.0433	-22491.49
0.9873,0.0127	-22471.20
0.9993,0.0007	-22469.39
0.9899,0.0101	-22484.56
0.9880,0.0120	-22479.91
0.9871,0.0129	-22479.90
0.9603,0.0397	-22491.36
0.9890,0.0110	-22470.94
0.9994,0.0006	-22469.37
0.9900,0.0100	-22489.17
0.9874,0.0126	-22479.90
0.9868,0.0132	-22471.28
0.9541,0.0459	-22488.57
0.9889,0.0111	-22470.95
0.9994,0.0006	-22476.82
0.9903,0.0097	-22479.99
0.9845,0.0155	-22479.93
0.9877,0.0123	-22471.14
0.9452,0.0548	-22494.98
0.9903,0.0097	-22484.62
0.9993,0.0007	-22469.39
0.9867,0.0133	-22471.29
0.9865,0.0135	-22471.32
0.9876,0.0124	-22479.91
0.9478,0.0522	-22486.16
0.9910,0.0090	-22475.33
0.9991,0.0009	-22469.42
0.9846,0.0154	-22484.08
0.9871,0.0129	-22492.91
0.9831,0.0169	-22479.97
0.9515,0.0485	-22500.67
0.9904,0.0096	-22484.63
0.9992,0.0008	-22469.41
0.9860,0.0140	-22492.67
0.9906,0.0094	-22470.70
0.9812,0.0188	-22480.04
0.9560,0.0440	-22500.75
0.9865,0.0135	-22475.61
0.9991,0.0009	-22469.42
0.9861,0.0139	-22479.90
0.9907,0.0093	-22484.68
0.9811,0.0189	-22487.95
0.9556,0.0444	-22497.67
0.9874,0.0126	-22471.19
0.9994,0.0006	-22469.38
0.9851,0.0149	-22475.72
0.9907,0.0093	-22475.35
0.9866,0.0134	-22471.30
0.9496,0.0504	-22500.66
0.9893,0.0107	-22470.89
0.9994,0.0006	-22469.37
0.9855,0.0145	-22475.69
0.9903,0.0097	-22470.74
0.9862,0.0138	-22484.17
0.9434,0.0566	-22495.08
0.9900,0.0100	-22470.79
0.9994,0.0006	-22469.37
0.9835,0.0165	-22479.95
0.9920,0.0080	-22470.48
0.9852,0.0148	-22488.31
0.9382,0.0618	-22511.71
0.9907,0.0093	-22470.68
0.9995,0.0005	-22469.36
0.9821,0.0179	-22471.99
0.9893,0.0107	-22479.95
0.9799,0.0201	-22483.99
0.9245,0.0755	-22503.95
0.9914,0.0086	-22475.32
0.9995,0.0005	-22469.36
0.9836,0.0164	-22479.95
0.9914,0.0086	-22480.07
0.9811,0.0189	-22472.15
0.9219,0.0781	-22511.48
0.9926,0.0074	-22475.29
0.9995,0.0005	-22469.35
0.9829,0.0171	-22475.92
0.9926,0.0074	-22470.40
0.9860,0.0140	-22475.65
0.9171,0.0829	-22511.54
0.9929,0.0071	-22475.29
0.9995,0.0005	-22469.36
0.9774,0.0226	-22487.79
0.9936,0.0064	-22485.37
0.9857,0.0143	-22488.37
0.9236,0.0764	-22496.51
0.9941,0.0059	-22470.16
0.9995,0.0005	-22469.36
0.9752,0.0248	-22480.41
0.9909,0.0091	-22475.34
0.9856,0.0144	-22479.91
0.9256,0.0744	-22506.43
0.9940,0.0060	-22470.18
0.9996,0.0004	-22469.34
0.9701,0.0299	-22484.30
0.9898,0.0102	-22479.96
0.9897,0.0103	-22470.84
0.9282,0.0718	-22511.48
0.9955,0.0045	-22469.95
0.9995,0.0005	-22469.36
0.9743,0.0257	-22480.47
0.9915,0.0085	-22475.32
0.9882,0.0118	-22479.91
0.9109,0.0891	-22520.99
0.9949,0.0051	-22470.05
0.9995,0.0005	-22469.35
0.9711,0.0289	-22484.25
0.9927,0.0073	-22490.02
0.9867,0.0133	-22471.29
0.9011,0.0989	-22512.08
0.9943,0.0057	-22475.30
0.9995,0.0005	-22469.35
0.9661,0.0339	-22487.90
0.9919,0.0081	-22470.49
0.9857,0.0143	-22471.44
0.8798,0.1202	-22521.38
0.9951,0.0049	-22470.01
0.9995,0.0005	-22469.35
0.9584,0.0416	-22494.56
0.9929,0.0071	-22470.35
0.9865,0.0135	-22475.61
0.8635,0.1365	-22529.59
0.9928,0.0072	-22485.14
0.9995,0.0005	-22469.36
0.9558,0.0442	-22488.45
0.9930,0.0070	-22475.29
0.9831,0.0169	-22479.97
0.8812,0.1188	-22529.34
0.9937,0.0063	-22470.23
0.9995,0.0005	-22469.35
0.9658,0.0342	-22484.57
0.9903,0.0097	-22470.74
0.9837,0.0163	-22479.95
0.8808,0.1192	-22513.34
0.9931,0.0069	-22470.31
0.9995,0.0005	-22469.37
0.9661,0.0339	-22491.25
0.9911,0.0089	-22475.33
0.9858,0.0142	-22471.43
0.8868,0.1132	-22525.26
0.9900,0.0100	-22484.58
0.9994,0.0006	-22469.37
0.9672,0.0328	-22481.09
0.9921,0.0079	-22480.14
0.9834,0.0166	-22488.12
0.8797,0.1203	-22507.46
0.9910,0.0090	-22489.43
0.9995,0.0005	-22469.36
0.9630,0.0370	-22488.03
0.9943,0.0057	-22480.47
0.9785,0.0215	-22476.37
0.8921,0.1079	-22499.89
0.9930,0.0070	-22470.34
0.9995,0.0005	-22469.36
0.9568,0.0432	-22510.06
0.9940,0.0060	-22470.18
0.9753,0.0247	-22480.40
0.9021,0.0979	-22503.15
0.9931,0.0069	-22480.26
0.9995,0.0005	-22469.36
0.9547,0.0453	-22485.48
0.9932,0.0068	-22470.30
0.9784,0.0216	-22480.19
0.9048,0.0952	-22516.42
0.9936,0.0064	-22475.29
0.9995,0.0005	-22469.36
0.9572,0.0428	-22491.46
0.9917,0.0083	-22470.53
0.9824,0.0176	-22484.01
0.8931,0.1069	-22512.50
0.9942,0.0058	-22475.30
0.9994,0.0006	-22469.38
0.9603,0.0397	-22494.54
0.9910,0.0090	-22475.34
0.9815,0.0185	-22484.00
0.8937,0.1063	-22514.60
0.9951,0.0049	-22470.01
0.9994,0.0006	-22469.38
0.9668,0.0332	-22491.25
0.9934,0.0066	-22470.27
0.9754,0.0246	-22484.07
0.8511,0.1489	-22517.85
0.9956,0.0044	-22469.94
0.9994,0.0006	-22469.37
0.9707,0.0293	-22487.77
0.9937,0.0063	-22470.23
0.9764,0.0236	-22487.77
0.8599,0.1401	-22524.26
0.9950,0.0050	-22475.32
0.9994,0.0006	-22469.38
0.9732,0.0268	-22484.15
0.9944,0.0056	-22475.30
0.9799,0.0201	-22487.88
0.8525,0.1475	-22524.73
0.9957,0.0043	-22475.37
0.9995,0.0005	-22469.36
0.9729,0.0271	-22480.59
0.9940,0.0060	-22470.19
0.9767,0.0233	-22476.57
0.8717,0.1283	-22517.92
0.9958,0.0042	-22480.84
0.9995,0.0005	-22469.36
0.9674,0.0326	-22484.47
0.9940,0.0060	-22470.19
0.9766,0.0234	-22476.57
0.8744,0.1256	-22515.79
0.9944,0.0056	-22475.30
0.9995,0.0005	-22469.36
0.9648,0.0352	-22491.26
0.9937,0.0063	-22470.22
0.9749,0.0251	-22484.09
0.8895,0.1105	-22521.07
0.9956,0.0044	-22469.94
0.9996,0.0004	-22469.35
0.9650,0.0350	-22481.31
0.9934,0.0066	-22470.27
0.9734,0.0266	-22484.15
0.9130,0.0870	-22495.18
0.9957,0.0043	-22469.93
0.9995,0.0005	-22469.36
0.9675,0.0325	-22481.06
0.9937,0.0063	-22470.22
0.9745,0.0255	-22487.75
0.9146,0.0854	-22516.34
0.9965,0.0035	-22469.80
0.9993,0.0007	-22469.39
0.9621,0.0379	-22488.07
0.9941,0.0059	-22470.16
0.9769,0.0231	-22487.78
0.9255,0.0745	-22508.95
0.9960,0.0040	-22469.88
0.9991,0.0009	-22476.44
0.9659,0.0341	-22487.90
0.9929,0.0071	-22470.34
0.9747,0.0253	-22491.40
0.9446,0.0554	-22497.85
0.9960,0.0040	-22475.40
0.9992,0.0008	-22469.41
0.9657,0.0343	-22481.24
0.9919,0.0081	-22470.49
0.9814,0.0186	-22487.97
0.9486,0.0514	-22486.08
0.9964,0.0036	-22469.82
0.9992,0.0008	-22476.51
0.9659,0.0341	-22487.91
0.9918,0.0082	-22470.51
0.9777,0.0223	-22476.45
0.9470,0.0530	-22489.13
0.9966,0.0034	-22469.79
0.9991,0.0009	-22469.42
0.9703,0.0297	-22487.78
0.9898,0.0102	-22475.39
0.9785,0.0215	-22472.56
0.9534,0.0466	-22500.69
0.9972,0.0028	-22469.70
0.9993,0.0007	-22469.39
0.9654,0.0346	-22474.61
0.9898,0.0102	-22470.82
0.9785,0.0215	-22480.18
0.9606,0.0394	-22488.15
0.9971,0.0029	-22469.72
0.9993,0.0007	-22469.40
0.9661,0.0339	-22494.60
0.9903,0.0097	-22470.74
0.9724,0.0276	-22487.75
0.9605,0.0395	-22481.78
0.9970,0.0030	-22469.73
0.9993,0.0007	-22469.39
0.9591,0.0409	-22494.55
0.9920,0.0080	-22475.30
0.9714,0.0286	-22477.19
0.9568,0.0432	-22488.38
0.9964,0.0036	-22469.82
0.9993,0.0007	-22469.39
0.9643,0.0357	-22487.97
0.9902,0.0098	-22470.76
0.9690,0.0310	-22484.36
0.9609,0.0391	-22484.94
0.9963,0.0037	-22469.83
0.9992,0.0008	-22469.40
0.9657,0.0343	-22487.91
0.9899,0.0101	-22484.56
0.9758,0.0242	-22495.15
0.9628,0.0372	-22481.53
0.9961,0.0039	-22475.41
0.9992,0.0008	-22469.40
0.9686,0.0314	-22484.39
0.9884,0.0116	-22479.92
0.9764,0.0236	-22476.60
0.9613,0.0387	-22491.33
0.9967,0.0033	-22469.78
0.9991,0.0009	-22469.42
0.9654,0.0346	-22484.60
0.9896,0.0104	-22475.40
0.9752,0.0248	-22495.09
0.9663,0.0337	-22494.60
0.9968,0.0032	-22475.50
0.9990,0.0010	-22469.43
0.9681,0.0319	-22487.83
0.9875,0.0125	-22479.91
0.9783,0.0217	-22480.20
0.9596,0.0404	-22488.21
0.9978,0.0022	-22469.61
0.9991,0.0009	-22469.41
0.9744,0.0256	-22484.11
0.9860,0.0140	-22475.65
0.9767,0.0233	-22484.04
0.9531,0.0469	-22485.63
0.9977,0.0023	-22475.70
0.9990,0.0010	-22469.43
0.9699,0.0301	-22484.32
0.9880,0.0120	-22475.50
0.9770,0.0230	-22476.53
0.9478,0.0522	-22497.76
0.9982,0.0018	-22469.56
0.9990,0.0010	-22469.43
0.9656,0.0344	-22484.58
0.9896,0.0104	-22479.96
0.9777,0.0223	-22491.58
0.9711,0.0289	-22484.25
0.9986,0.0014	-22469.49
0.9990,0.0010	-22469.43
0.9774,0.0226	-22484.02
0.9881,0.0119	-22479.91
0.9784,0.0216	-22487.82
0.9670,0.0330	-22481.11
0.9986,0.0014	-22469.49
0.9988,0.0012	-22469.47
0.9725,0.0275	-22484.18
0.9876,0.0124	-22475.53
0.9752,0.0248	-22476.74
0.9684,0.0316	-22491.25
0.9984,0.0016	-22469.52
0.9986,0.0014	-22469.49
0.9658,0.0342	-22491.25
0.9827,0.0173	-22475.94
0.9747,0.0253	-22484.10
0.9636,0.0364	-22488.00
0.9982,0.0018	-22475.85
0.9980,0.0020	-22475.78
0.9569,0.0431	-22519.39
0.9817,0.0183	-22476.03
0.9751,0.0249	-22476.75
0.9617,0.0383	-22494.54
0.9984,0.0016	-22469.53
0.9983,0.0017	-22475.90
0.9516,0.0484	-22494.71
0.9830,0.0170	-22488.09
0.9777,0.0223	-22484.02
0.9640,0.0360	-22497.85
0.9986,0.0014	-22482.68
0.9982,0.0018	-22469.56
0.9429,0.0571	-22486.69
0.9800,0.0200	-22476.21
0.9807,0.0193	-22480.06
0.9541,0.0459	-22491.60
0.9988,0.0012	-22469.47
0.9979,0.0021	-22469.60
0.9431,0.0569	-22492.28
0.9711,0.0289	-22480.73
0.9775,0.0225	-22487.79
0.9527,0.0473	-22482.67
0.9986,0.0014	-22469.49
0.9977,0.0023	-22469.63
0.9365,0.0635	-22492.81
0.9809,0.0191	-22480.06
0.9708,0.0292	-22484.27
0.9500,0.0500	-22488.88
0.9984,0.0016	-22475.96
0.9973,0.0027	-22469.69
0.9396,0.0604	-22495.30
0.9777,0.0223	-22480.24
0.9764,0.0236	-22480.32
0.9455,0.0545	-22492.11
0.9984,0.0016	-22475.97
0.9969,0.0031	-22481.28
0.9464,0.0536	-22492.05
0.9750,0.0250	-22487.75
0.9782,0.0218	-22480.20
0.9521,0.0479	-22488.72
0.9986,0.0014	-22469.49
0.9964,0.0036	-22475.44
0.9531,0.0469	-22485.63
0.9753,0.0247	-22473.05
0.9821,0.0179	-22480.00
0.9438,0.0562	-22514.80
0.9985,0.0015	-22469.51
0.9966,0.0034	-22469.79
0.9575,0.0425	-22491.45
0.9723,0.0277	-22484.20
0.9760,0.0240	-22484.05
0.9503,0.0497	-22506.56
0.9981,0.0019	-22469.56
0.9966,0.0034	-22475.48
0.9540,0.0460	-22494.64
0.9737,0.0263	-22487.75
0.9742,0.0258	-22473.22
0.9468,0.0532	-22500.66
0.9970,0.0030	-22475.53
0.9963,0.0037	-22469.84
0.9564,0.0436	-22482.23
0.9746,0.0254	-22491.40
0.9770,0.0230	-22487.78
0.9434,0.0566	-22492.26
0.9972,0.0028	-22475.59
0.9961,0.0039	-22469.87
0.9626,0.0374	-22488.05
0.9820,0.0180	-22480.01
0.9740,0.0260	-22480.50
0.9369,0.0631	-22498.17
0.9972,0.0028	-22469.70
0.9957,0.0043	-22475.37
0.9687,0.0313	-22491.25
0.9830,0.0170	-22479.97
0.9720,0.0280	-22477.11
0.9290,0.0710	-22511.49
0.9961,0.0039	-22469.87
0.9955,0.0045	-22475.36
0.9634,0.0366	-22488.01
0.9877,0.0123	-22484.29
0.9732,0.0268	-22473.37
0.9228,0.0772	-22506.51
0.9966,0.0034	-22475.47
0.9951,0.0049	-22480.65
0.9646,0.0354	-22481.35
0.9832,0.0168	-22479.96
0.9704,0.0296	-22484.29
0.9195,0.0805	-22509.07
0.9972,0.0028	-22469.70
0.9945,0.0055	-22475.30
0.9594,0.0406	-22488.22
0.9809,0.0191	-22484.00
0.9715,0.0285	-22484.23
0.9295,0.0705	-22511.49
0.9971,0.0029	-22475.55
0.9945,0.0055	-22475.30
0.9561,0.0439	-22488.43
0.9802,0.0198	-22480.09
0.9698,0.0302	-22494.73
0.9122,0.0878	-22506.97
0.9978,0.0022	-22475.73
0.9941,0.0059	-22475.29
0.9578,0.0422	-22485.20
0.9823,0.0177	-22475.98
0.9629,0.0371	-22484.78
0.9159,0.0841	-22502.01
0.9979,0.0021	-22469.60
0.9931,0.0069	-22485.21
0.9590,0.0410	-22481.94
0.9809,0.0191	-22484.00
0.9594,0.0406	-22491.39
0.9152,0.0848	-22516.34
0.9985,0.0015	-22469.51
0.9925,0.0075	-22470.41
0.9637,0.0363	-22484.72
0.9811,0.0189	-22487.95
0.9646,0.0354	-22497.87
0.9227,0.0773	-22499.08
0.9984,0.0016	-22469.53
0.9917,0.0083	-22470.54
0.9650,0.0350	-22491.26
0.9787,0.0213	-22484.00
0.9699,0.0301	-22480.84
0.9371,0.0629	-22506.26
0.9976,0.0024	-22475.68
0.9912,0.0088	-22484.78
0.9642,0.0358	-22491.27
0.9741,0.0259	-22491.37
0.9649,0.0351	-22484.63
0.9380,0.0620	-22506.27
0.9980,0.0020	-22469.58
0.9936,0.0064	-22470.25
0.9511,0.0489	-22500.66
0.9676,0.0324	-22487.85
0.9627,0.0373	-22484.79
0.9504,0.0496	-22497.71
0.9980,0.0020	-22469.58
0.9923,0.0077	-22475.30
0.9500,0.0500	-22500.66
0.9660,0.0340	-22491.25
0.9506,0.0494	-22494.75
0.9441,0.0559	-22492.21
0.9977,0.0023	-22469.63
0.9929,0.0071	-22480.23
0.9551,0.0449	-22491.55
0.9618,0.0382	-22484.87
0.9475,0.0525	-22494.87
0.9539,0.0461	-22497.67
0.9974,0.0026	-22475.62
0.9924,0.0076	-22470.42
0.9488,0.0512	-22509.41
0.9617,0.0383	-22494.54
0.9453,0.0547	-22489.27
0.9562,0.0438	-22494.59
0.9971,0.0029	-22469.72
0.9940,0.0060	-22470.18
0.9337,0.0663	-22511.57
0.9426,0.0574	-22495.12
0.9499,0.0501	-22485.94
0.9546,0.0454	-22494.62
0.9975,0.0025	-22469.66
0.9954,0.0046	-22469.97
0.9146,0.0854	-22504.48
0.9548,0.0452	-22494.62
0.9512,0.0488	-22488.79
0.9575,0.0425	-22500.80
0.9978,0.0022	-22469.61
0.9958,0.0042	-22469.91
0.8940,0.1060	-22518.85
0.9541,0.0459	-22491.60
0.9566,0.0434	-22494.58
0.9623,0.0377	-22481.59
0.9979,0.0021	-22475.75
0.9951,0.0049	-22470.02
0.8801,0.1199	-22513.40
0.9381,0.0619	-22487.23
0.9656,0.0344	-22481.25
0.9664,0.0336	-22484.53
0.9980,0.0020	-22469.58
0.9952,0.0048	-22475.33
0.9001,0.0999	-22514.32
0.9314,0.0686	-22501.08
0.9645,0.0355	-22487.96
0.9633,0.0367	-22491.28
0.9982,0.0018	-22482.19
0.9947,0.0053	-22470.08
0.9058,0.0942	-22509.61
0.9327,0.0673	-22501.03
0.9641,0.0359	-22481.40
0.9598,0.0402	-22478.68
0.9980,0.0020	-22475.80
0.9951,0.0049	-22470.02
0.9028,0.0972	-22509.77
0.9364,0.0636	-22492.82
0.9606,0.0394	-22484.96
0.9658,0.0342	-22504.61
0.9978,0.0022	-22469.61
0.9954,0.0046	-22475.35
0.9232,0.0768	-22506.50
0.9345,0.0655	-22500.96
0.9518,0.0482	-22500.67
0.9771,0.0229	-22476.53
0.9981,0.0019	-22469.57
0.9959,0.0041	-22475.39
0.9287,0.0713	-22498.65
0.9461,0.0539	-22494.94
0.9445,0.0555	-22489.35
0.9743,0.0257	-22484.11
0.9983,0.0017	-22469.54
0.9960,0.0040	-22469.88
0.9335,0.0665	-22495.71
0.9598,0.0402	-22497.72
0.9470,0.0530	-22489.13
0.9736,0.0264	-22484.14
0.9984,0.0016	-22469.53
0.9958,0.0042	-22469.91
0.9318,0.0682	-22501.07
0.9507,0.0493	-22494.74
0.9425,0.0575	-22500.72
0.9776,0.0224	-22487.79
0.9983,0.0017	-22475.93
0.9968,0.0032	-22469.76
0.9298,0.0702	-22498.58
0.9505,0.0495	-22482.93
0.9559,0.0441	-22488.44
0.9732,0.0268	-22484.15
0.9983,0.0017	-22469.53
0.9971,0.0029	-22475.55
0.9322,0.0678	-22495.81
0.9641,0.0359	-22484.69
0.9532,0.0468	-22482.60
0.9697,0.0303	-22491.26
0.9984,0.0016	-22469.52
0.9978,0.0022	-22469.62
0.9319,0.0681	-22487.98
0.9665,0.0335	-22497.97
0.9404,0.0596	-22498.01
0.9618,0.0382	-22484.86
0.9985,0.0015	-22469.51
0.9975,0.0025	-22475.66
0.9300,0.0700	-22519.26
0.9689,0.0311	-22484.37
0.9403,0.0597	-22500.77
0.9568,0.0432	-22497.68
0.9991,0.0009	-22469.41
0.9976,0.0024	-22475.66
0.9246,0.0754	-22506.46
0.9677,0.0323	-22484.44
0.9504,0.0496	-22500.66
0.9555,0.0445	-22494.60
0.9991,0.0009	-22469.42
0.9974,0.0026	-22469.68
0.9401,0.0599	-22489.76
0.9641,0.0359	-22487.98
0.9569,0.0431	-22503.88
0.9564,0.0436	-22485.32
0.9991,0.0009	-22469.42
0.9968,0.0032	-22469.76
0.9343,0.0657	-22495.65
0.9692,0.0308	-22474.01
0.9446,0.0554	-22486.50
0.9648,0.0352	-22491.26
0.9990,0.0010	-22469.43
0.9958,0.0042	-22486.34
0.9300,0.0700	-22506.33
0.9745,0.0255	-22473.17
0.9392,0.0608	-22500.80
0.9553,0.0447	-22494.61
0.9990,0.0010	-22469.44
0.9957,0.0043	-22475.37
0.9287,0.0713	-22503.78
0.9746,0.0254	-22484.10
0.9408,0.0592	-22497.99
0.9605,0.0395	-22488.16
0.9989,0.0011	-22469.44
0.9962,0.0038	-22469.85
0.9371,0.0629	-22500.86
0.9768,0.0232	-22476.55
0.9432,0.0568	-22497.90
0.9637,0.0363	-22484.72
0.9989,0.0011	-22469.45
0.9966,0.0034	-22469.80
0.9428,0.0572	-22486.70
0.9775,0.0225	-22484.02
0.9414,0.0586	-22495.19
0.9671,0.0329	-22494.62
0.9990,0.0010	-22469.43
0.9962,0.0038	-22469.85
0.9439,0.0561	-22495.05
0.9784,0.0216	-22484.01
0.9375,0.0625	-22503.56
0.9748,0.0252	-22491.41
0.9990,0.0010	-22469.43
0.9969,0.0031	-22475.52
0.9435,0.0565	-22497.88
0.9769,0.0231	-22476.54
0.9278,0.0722	-22508.92
0.9669,0.0331	-22487.87
0.9991,0.0009	-22469.42
0.9967,0.0033	-22469.78
0.9459,0.0541	-22492.09
0.9788,0.0212	-22480.17
0.9393,0.0607	-22503.53
0.9556,0.0444	-22494.60
0.9988,0.0012	-22469.46
0.9960,0.0040	-22475.40
0.9487,0.0513	-22494.82
0.9739,0.0261	-22487.75
0.9469,0.0531	-22494.90
0.9669,0.0331	-22497.99
0.9988,0.0012	-22469.47
0.9969,0.0031	-22469.75
0.9454,0.0546	-22483.56
0.9642,0.0358	-22484.68
0.9449,0.0551	-22500.68
0.9653,0.0347	-22494.58
0.9989,0.0011	-22469.45
0.9970,0.0030	-22469.73
0.9455,0.0545	-22486.40
0.9609,0.0391	-22481.73
0.9365,0.0635	-22500.88
0.9640,0.0360	-22501.13
0.9987,0.0013	-22469.47
0.9968,0.0032	-22469.76
0.9627,0.0373	-22497.80
0.9681,0.0319	-22477.60
0.9364,0.0636	-22495.50
0.9641,0.0359	-22484.69
0.9990,0.0010	-22469.43
0.9971,0.0029	-22469.72
0.9581,0.0419	-22491.43
0.9717,0.0283	-22480.68
0.9403,0.0597	-22511.80
0.9596,0.0404	-22485.05
0.9991,0.0009	-22469.42
0.9974,0.0026	-22475.63
0.9600,0.0400	-22494.54
0.9761,0.0239	-22484.05
0.9319,0.0681	-22498.45
0.9600,0.0400	-22494.54
0.9991,0.0009	-22469.41
0.9978,0.0022	-22469.61
0.9667,0.0333	-22484.51
0.9779,0.0221	-22472.65
0.9451,0.0549	-22494.99
0.9673,0.0327	-22481.08
0.9992,0.0008	-22469.40
0.9978,0.0022	-22475.74
0.9685,0.0315	-22477.54
0.9786,0.0214	-22484.00
0.9436,0.0564	-22492.25
0.9642,0.0358	-22484.68
0.9994,0.0006	-22469.38
0.9978,0.0022	-22469.62
0.9693,0.0307	-22477.44
0.9736,0.0264	-22484.14
0.9337,0.0663	-22508.92
0.9748,0.0252	-22491.40
0.9995,0.0005	-22469.36
0.9974,0.0026	-22469.67
0.9684,0.0316	-22491.25
0.9796,0.0204	-22499.48
0.9263,0.0737	-22511.47
0.9741,0.0259	-22487.75
0.9994,0.0006	-22469.37
0.9975,0.0025	-22475.63
0.9661,0.0339	-22484.55
0.9767,0.0233	-22480.30
0.9397,0.0603	-22500.78
0.9728,0.0272	-22487.75
0.9994,0.0006	-22469.37
0.9971,0.0029	-22469.71
0.9733,0.0267	-22487.75
0.9728,0.0272	-22480.59
0.9299,0.0701	-22493.40
0.9761,0.0239	-22491.47
0.9991,0.0009	-22469.41
0.9979,0.0021	-22469.59
0.9734,0.0266	-22491.35
0.9768,0.0232	-22480.30
0.9280,0.0720	-22506.37
0.9813,0.0187	-22480.04
0.9991,0.0009	-22476.46
0.9981,0.0019	-22469.57
0.9746,0.0254	-22476.81
0.9772,0.0228	-22487.78
0.9369,0.0631	-22492.78
0.9818,0.0182	-22480.02
0.9991,0.0009	-22469.41
0.9975,0.0025	-22469.65
0.9727,0.0273	-22477.04
0.9760,0.0240	-22491.47
0.9398,0.0602	-22500.78
0.9837,0.0163	-22479.95
0.9992,0.0008	-22469.40
0.9980,0.0020	-22469.59
0.9681,0.0319	-22481.00
0.9793,0.0207	-22480.14
0.9578,0.0422	-22482.07
0.9849,0.0151	-22475.74
0.9992,0.0008	-22469.40
0.9979,0.0021	-22469.59
0.9739,0.0261	-22480.51
0.9813,0.0187	-22491.92
0.9703,0.0297	-22494.75
0.9855,0.0145	-22479.91
0.9992,0.0008	-22469.40
0.9979,0.0021	-22469.59
0.9689,0.0311	-22487.81
0.9811,0.0189	-22480.05
0.9695,0.0305	-22480.88
0.9864,0.0136	-22479.90
0.9991,0.0009	-22469.42
0.9980,0.0020	-22469.58
0.9699,0.0301	-22484.32
0.9851,0.0149	-22484.11
0.9677,0.0323	-22494.64
0.9861,0.0139	-22479.90
0.9991,0.0009	-22469.41
0.9981,0.0019	-22469.56
0.9756,0.0244	-22491.45
0.9810,0.0190	-22480.05
0.9680,0.0320	-22494.66
0.9854,0.0146	-22479.91
0.9993,0.0007	-22469.39
0.9980,0.0020	-22469.58
0.9806,0.0194	-22495.77
0.9773,0.0227	-22476.50
0.9693,0.0307	-22487.80
0.9852,0.0148	-22479.91
0.9993,0.0007	-22469.40
0.9976,0.0024	-22469.65
0.9824,0.0176	-22475.97
0.9731,0.0269	-22476.98
0.9648,0.0352	-22478.01
0.9798,0.0202	-22480.11
0.9993,0.0007	-22469.38
0.9972,0.0028	-22469.70
0.9815,0.0185	-22487.97
0.9649,0.0351	-22494.57
0.9618,0.0382	-22488.09
0.9828,0.0172	-22475.93
0.9993,0.0007	-22469.39
0.9973,0.0027	-22481.49
0.9833,0.0167	-22479.96
0.9699,0.0301	-22494.73
0.9602,0.0398	-22478.62
0.9816,0.0184	-22480.02
0.9990,0.0010	-22469.43
0.9972,0.0028	-22469.71
0.9823,0.0177	-22484.01
0.9646,0.0354	-22487.96
0.9509,0.0491	-22491.77
0.9797,0.0203	-22476.24
0.9990,0.0010	-22469.43
0.9969,0.0031	-22475.53
0.9812,0.0188	-22480.04
0.9677,0.0323	-22481.05
0.9487,0.0513	-22497.74
0.9775,0.0225	-22484.02
0.9989,0.0011	-22469.44
0.9973,0.0027	-22469.69
0.9829,0.0171	-22479.97
0.9643,0.0357	-22491.27
0.9385,0.0615	-22495.37
0.9753,0.0247	-22476.73
0.9992,0.0008	-22469.40
0.9970,0.0030	-22469.73
0.9859,0.0141	-22484.15
0.9708,0.0292	-22487.77
0.9423,0.0577	-22497.93
0.9729,0.0271	-22491.33
0.9993,0.0007	-22469.39
0.9971,0.0029	-22481.37
0.9852,0.0148	-22475.72
0.9728,0.0272	-22480.59
0.9514,0.0486	-22503.64
0.9736,0.0264	-22484.14
0.9993,0.0007	-22469.38
0.9973,0.0027	-22469.69
0.9860,0.0140	-22484.16
0.9750,0.0250	-22473.10
0.9529,0.0471	-22500.68
0.9787,0.0213	-22484.00
0.9994,0.0006	-22469.38
0.9974,0.0026	-22475.61
0.9889,0.0111	-22475.44
0.9761,0.0239	-22487.76
0.9480,0.0520	-22509.37
0.9771,0.0229	-22476.52
0.9993,0.0007	-22476.62
0.9978,0.0022	-22469.61
0.9880,0.0120	-22471.10
0.9723,0.0277	-22477.07
0.9460,0.0540	-22492.08
0.9767,0.0233	-22476.57
0.9993,0.0007	-22469.39
0.9977,0.0023	-22469.63
0.9864,0.0136	-22475.62
0.9701,0.0299	-22480.83
0.9408,0.0592	-22492.46
0.9760,0.0240	-22476.64
0.9993,0.0007	-22469.39
0.9971,0.0029	-22469.71
0.9880,0.0120	-22479.91
0.9616,0.0384	-22478.43
0.9444,0.0556	-22492.19
0.9803,0.0197	-22472.27
0.9991,0.0009	-22469.42
0.9976,0.0024	-22469.65
0.9897,0.0103	-22475.40
0.9559,0.0441	-22494.60
0.9549,0.0451	-22485.46
0.9826,0.0174	-22475.95
0.9987,0.0013	-22469.48
0.9978,0.0022	-22469.61
0.9902,0.0098	-22475.37
0.9642,0.0358	-22494.56
0.9482,0.0518	-22512.29
0.9813,0.0187	-22476.07
0.9987,0.0013	-22469.47
0.9980,0.0020	-22475.80
0.9894,0.0106	-22479.95
0.9629,0.0371	-22484.78
0.9546,0.0454	-22497.67
0.9844,0.0156	-22479.93
0.9986,0.0014	-22476.05
0.9984,0.0016	-22469.52
0.9884,0.0116	-22484.37
0.9591,0.0409	-22504.01
0.9567,0.0433	-22497.68
0.9859,0.0141	-22492.66
0.9985,0.0015	-22469.51
0.9985,0.0015	-22469.51
0.9855,0.0145	-22479.91
0.9560,0.0440	-22488.44
0.9606,0.0394	-22488.15
0.9877,0.0123	-22484.29
0.9984,0.0016	-22469.52
0.9984,0.0016	-22475.95
0.9848,0.0152	-22484.09
0.9656,0.0344	-22481.24
0.9632,0.0368	-22491.29
0.9890,0.0110	-22479.94
0.9987,0.0013	-22469.47
0.9983,0.0017	-22469.53
0.9854,0.0146	-22479.91
0.9655,0.0345	-22481.25
0.9557,0.0443	-22497.67
0.9895,0.0105	-22475.41
0.9990,0.0010	-22469.44
0.9986,0.0014	-22469.49
0.9826,0.0174	-22479.99
0.9689,0.0311	-22484.37
0.9558,0.0442	-22488.45
0.9869,0.0131	-22475.58
0.9990,0.0010	-22469.44
0.9985,0.0015	-22469.51
0.9842,0.0158	-22484.07
0.9604,0.0396	-22491.35
0.9614,0.0386	-22491.33
0.9886,0.0114	-22475.46
0.9991,0.0009	-22469.42
0.9987,0.0013	-22469.48
0.9867,0.0133	-22484.21
0.9556,0.0444	-22494.60
0.9648,0.0352	-22481.33
0.9908,0.0092	-22470.66
0.9991,0.0009	-22476.46
0.9981,0.0019	-22469.57
0.9871,0.0129	-22479.90
0.9545,0.0455	-22485.50
0.9544,0.0456	-22485.51
0.9891,0.0109	-22475.43
0.9991,0.0009	-22469.42
0.9983,0.0017	-22469.53
0.9832,0.0168	-22479.96
0.9559,0.0441	-22485.37
0.9546,0.0454	-22494.63
0.9913,0.0087	-22475.32
0.9991,0.0009	-22469.42
0.9982,0.0018	-22469.55
0.9845,0.0155	-22475.77
0.9445,0.0555	-22506.35
0.9380,0.0620	-22489.97
0.9886,0.0114	-22471.00
0.9990,0.0010	-22469.43
0.9979,0.0021	-22469.59
0.9858,0.0142	-22475.66
0.9499,0.0501	-22503.60
0.9291,0.0709	-22511.49
0.9877,0.0123	-22488.67
0.9990,0.0010	-22469.44
0.9979,0.0021	-22469.59
0.9883,0.0117	-22471.05
0.9485,0.0515	-22489.00
0.9275,0.0725	-22521.67
0.9862,0.0138	-22475.63
0.9990,0.0010	-22469.44
0.9981,0.0019	-22469.56
0.9899,0.0101	-22475.38
0.9471,0.0529	-22486.24
0.9262,0.0738	-22496.29
0.9842,0.0158	-22471.67
0.9991,0.0009	-22469.42
0.9980,0.0020	-22469.59
0.9904,0.0096	-22475.36
0.9600,0.0400	-22485.01
0.9274,0.0726	-22498.74
0.9842,0.0158	-22475.80
0.9992,0.0008	-22469.41
0.9980,0.0020	-22469.58
0.9895,0.0105	-22475.41
0.9705,0.0295	-22494.76
0.9274,0.0726	-22501.29
0.9838,0.0162	-22475.84
0.9993,0.0007	-22469.39
0.9980,0.0020	-22469.58
0.9903,0.0097	-22470.74
0.9618,0.0382	-22491.32
0.9337,0.0663	-22503.63
0.9837,0.0163	-22492.25
0.9992,0.0008	-22469.41
0.9980,0.0020	-22469.58
0.9880,0.0120	-22475.50
0.9633,0.0367	-22484.75
0.9288,0.0712	-22503.78
0.9800,0.0200	-22487.89
0.9992,0.0008	-22469.40
0.9980,0.0020	-22469.58
0.9907,0.0093	-22475.35
0.9564,0.0436	-22494.59
0.9258,0.0742	-22498.85
0.9788,0.0212	-22484.00
0.9992,0.0008	-22469.40
0.9980,0.0020	-22469.58
0.9924,0.0076	-22480.17
0.9559,0.0441	-22485.37
0.9208,0.0792	-22501.68
0.9770,0.0230	-22476.53
0.9991,0.0009	-22469.41
0.9980,0.0020	-22469.58
0.9922,0.0078	-22475.30
0.9613,0.0387	-22488.12
0.9326,0.0674	-22495.78
0.9819,0.0181	-22476.02
0.9993,0.0007	-22469.39
0.9985,0.0015	-22469.50
0.9913,0.0087	-22475.33
0.9621,0.0379	-22494.54
0.9525,0.0475	-22488.68
0.9833,0.0167	-22479.96
0.9992,0.0008	-22476.58
0.9983,0.0017	-22469.54
0.9916,0.0084	-22470.55
0.9585,0.0415	-22494.56
0.9533,0.0467	-22497.68
0.9830,0.0170	-22484.03
0.9992,0.0008	-22469.41
0.9985,0.0015	-22469.51
0.9919,0.0081	-22475.31
0.9585,0.0415	-22485.14
0.9462,0.0538	-22489.20
0.9850,0.0150	-22484.10
0.9991,0.0009	-22469.41
0.9986,0.0014	-22469.49
0.9924,0.0076	-22470.43
0.9653,0.0347	-22491.26
0.9407,0.0593	-22489.71
0.9858,0.0142	-22479.91
0.9993,0.0007	-22469.39
0.9986,0.0014	-22469.49
0.9930,0.0070	-22475.29
0.9492,0.0508	-22497.73
0.9325,0.0675	-22508.91
0.9869,0.0131	-22475.58
0.9992,0.0008	-22469.40
0.9986,0.0014	-22469.50
0.9938,0.0062	-22480.36
0.9473,0.0527	-22497.77
0.9477,0.0523	-22486.17
0.9895,0.0105	-22475.41
0.9991,0.0009	-22469.42
0.9985,0.0015	-22469.50
0.9935,0.0065	-22470.25
0.9430,0.0570	-22511.94
0.9569,0.0431	-22488.38
0.9885,0.0115	-22471.02
0.9990,0.0010	-22469.44
0.9986,0.0014	-22476.05
0.9939,0.0061	-22490.55
0.9366,0.0634	-22506.26
0.9575,0.0425	-22491.45
0.9902,0.0098	-22470.76
0.9989,0.0011	-22469.45
0.9982,0.0018	-22469.56
0.9941,0.0059	-22470.17
0.9331,0.0669	-22501.01
0.9575,0.0425	-22503.91
0.9918,0.0082	-22475.31
0.9989,0.0011	-22469.46
0.9984,0.0016	-22469.53
0.9951,0.0049	-22470.01
0.9330,0.0670	-22503.65
0.9637,0.0363	-22484.72
0.9925,0.0075	-22480.18
0.9989,0.0011	-22469.45
0.9981,0.0019	-22469.56
0.9960,0.0040	-22475.40
0.9169,0.0831	-22494.74
0.9690,0.0310	-22480.92
0.9921,0.0079	-22470.47
0.9988,0.0012	-22476.21
0.9984,0.0016	-22475.95
0.9965,0.0035	-22469.81
0.9207,0.0793	-22509.04
0.9637,0.0363	-22488.00
0.9928,0.0072	-22475.29
0.9986,0.0014	-22469.49
0.9985,0.0015	-22469.51
0.9963,0.0037	-22486.60
0.8864,0.1136	-22512.94
0.9597,0.0403	-22494.55
0.9938,0.0062	-22475.29
0.9989,0.0011	-22469.45
0.9983,0.0017	-22469.53
0.9963,0.0037	-22475.44
0.8662,0.1338	-22520.18
0.9615,0.0385	-22488.11
0.9933,0.0067	-22475.29
0.9985,0.0015	-22469.51
0.9985,0.0015	-22482.45
0.9966,0.0034	-22475.47
0.8747,0.1253	-22525.49
0.9693,0.0307	-22480.90
0.9929,0.0071	-22475.29
0.9987,0.0013	-22469.48
0.9984,0.0016	-22469.52
0.9956,0.0044	-22469.94
0.8946,0.1054	-22518.84
0.9665,0.0335	-22477.80
0.9940,0.0060	-22475.29
0.9988,0.0012	-22469.47
0.9987,0.0013	-22469.48
0.9959,0.0041	-22469.90
0.9049,0.0951	-22511.91
0.9726,0.0274	-22484.18
0.9941,0.0059	-22470.17
0.9988,0.0012	-22469.46
0.9989,0.0011	-22469.45
0.9947,0.0053	-22475.31
0.9184,0.0816	-22509.10
0.9646,0.0354	-22484.65
0.9937,0.0063	-22470.22
0.9987,0.0013	-22469.47
0.9989,0.0011	-22469.44
0.9963,0.0037	-22469.83
0.9109,0.0891	-22520.99
0.9633,0.0367	-22491.28
0.9933,0.0067	-22475.29
0.9990,0.0010	-22476.36
0.9990,0.0010	-22469.43
0.9964,0.0036	-22475.45
0.8932,0.1068	-22525.24
0.9656,0.0344	-22484.58
0.9937,0.0063	-22470.22
0.9991,0.0009	-22469.42
0.9990,0.0010	-22469.43
0.9960,0.0040	-22480.90
0.8856,0.1144	-22519.13
0.9682,0.0318	-22494.66
0.9944,0.0056	-22475.30
0.9994,0.0006	-22469.38
0.9992,0.0008	-22469.40
0.9967,0.0033	-22475.49
0.8951,0.1049	-22501.67
0.9664,0.0336	-22487.89
0.9947,0.0053	-22475.31
0.9993,0.0007	-22469.38
0.9993,0.0007	-22469.39
0.9966,0.0034	-22475.47
0.9152,0.0848	-22509.20
0.9561,0.0439	-22494.59
0.9949,0.0051	-22470.05
0.9994,0.0006	-22469.38
0.9992,0.0008	-22469.40
0.9970,0.0030	-22475.54
0.9240,0.0760	-22496.48
0.9571,0.0429	-22488.36
0.9950,0.0050	-22475.32
0.9994,0.0006	-22469.38
0.9991,0.0009	-22469.41
0.9968,0.0032	-22469.77
0.9174,0.0826	-22501.90
0.9648,0.0352	-22487.95
0.9956,0.0044	-22469.94
0.9993,0.0007	-22469.39
0.9991,0.0009	-22469.43
0.9969,0.0031	-22469.75
0.9191,0.0809	-22521.23
0.9639,0.0361	-22491.27
0.9949,0.0051	-22470.05
0.9993,0.0007	-22469.39
0.9987,0.0013	-22469.47
0.9973,0.0027	-22469.69
0.9252,0.0748	-22501.41
0.9557,0.0443	-22494.60
0.9958,0.0042	-22469.91
0.9994,0.0006	-22469.37
0.9987,0.0013	-22469.47
0.9968,0.0032	-22475.50
0.9318,0.0682	-22532.45
0.9533,0.0467	-22500.69
0.9963,0.0037	-22469.84
0.9995,0.0005	-22476.94
0.9989,0.0011	-22476.24
0.9968,0.0032	-22469.76
0.9302,0.0698	-22488.19
0.9596,0.0404	-22485.04
0.9957,0.0043	-22469.92
0.9994,0.0006	-22469.37
0.9990,0.0010	-22469.43
0.9972,0.0028	-22475.58
0.9157,0.0843	-22502.03
0.9537,0.0463	-22500.70
0.9956,0.0044	-22469.95
0.9996,0.0004	-22469.35
0.9990,0.0010	-22469.44
0.9975,0.0025	-22469.66
0.9268,0.0732	-22508.93
0.9602,0.0398	-22491.36
0.9961,0.0039	-22475.41
0.9996,0.0004	-22469.35
0.9989,0.0011	-22469.45
0.9970,0.0030	-22475.53
0.9415,0.0585	-22497.96
0.9524,0.0476	-22494.68
0.9964,0.0036	-22469.83
0.9996,0.0004	-22469.35
0.9989,0.0011	-22469.45
0.9972,0.0028	-22469.70
0.9399,0.0601	-22511.78
0.9645,0.0355	-22487.96
0.9971,0.0029	-22481.41
0.9996,0.0004	-22469.35
0.9991,0.0009	-22469.42
0.9968,0.0032	-22469.76
0.9478,0.0522	-22494.86
0.9609,0.0391	-22481.74
0.9969,0.0031	-22475.52
0.9995,0.0005	-22469.36
0.9988,0.0012	-22469.47
0.9965,0.0035	-22469.81
0.9465,0.0535	-22497.79
0.9602,0.0398	-22488.18
0.9974,0.0026	-22469.68
0.9995,0.0005	-22469.35
0.9986,0.0014	-22469.49
0.9956,0.0044	-22475.36
0.9442,0.0558	-22500.69
0.9501,0.0499	-22503.61
0.9975,0.0025	-22475.64
0.9994,0.0006	-22469.37
0.9988,0.0012	-22469.47
0.9951,0.0049	-22475.33
0.9423,0.0577	-22495.14
0.9535,0.0465	-22497.67
0.9978,0.0022	-22469.61
0.9995,0.0005	-22469.36
0.9985,0.0015	-22469.50
0.9942,0.0058	-22475.30
0.9343,0.0657	-22498.31
0.9460,0.0540	-22503.53
0.9982,0.0018	-22469.55
0.9994,0.0006	-22469.37
0.9982,0.0018	-22469.56
0.9943,0.0057	-22485.64
0.9361,0.0639	-22511.63
0.9526,0.0474	-22497.68
0.9980,0.0020	-22469.58
0.9993,0.0007	-22469.38
0.9986,0.0014	-22469.49
0.9951,0.0049	-22470.02
0.9400,0.0600	-22506.28
0.9597,0.0403	-22478.70
0.9983,0.0017	-22469.54
0.9993,0.0007	-22469.38
0.9984,0.0016	-22469.53
0.9960,0.0040	-22469.88
0.9528,0.0472	-22494.67
0.9475,0.0525	-22509.34
0.9981,0.0019	-22469.57
0.9993,0.0007	-22469.38
0.9984,0.0016	-22469.53
0.9968,0.0032	-22475.50
0.9500,0.0500	-22494.77
0.9461,0.0539	-22494.94
0.9985,0.0015	-22469.51
0.9993,0.0007	-22469.39
0.9987,0.0013	-22476.13
0.9966,0.0034	-22469.80
0.9534,0.0466	-22500.69
0.9553,0.0447	-22500.73
0.9985,0.0015	-22469.51
0.9991,0.0009	-22469.41
0.9987,0.0013	-22469.48
0.9958,0.0042	-22469.92
0.9497,0.0503	-22494.78
0.9485,0.0515	-22494.83
0.9986,0.0014	-22469.49
0.9991,0.0009	-22469.42
0.9985,0.0015	-22469.51
0.9942,0.0058	-22470.16
0.9523,0.0477	-22485.70
0.9578,0.0422	-22488.32
0.9985,0.0015	-22469.51
0.9990,0.0010	-22469.43
0.9983,0.0017	-22469.54
0.9946,0.0054	-22470.09
0.9355,0.0645	-22503.59
0.9574,0.0426	-22491.46
0.9984,0.0016	-22469.53
0.9990,0.0010	-22469.44
0.9977,0.0023	-22475.71
0.9934,0.0066	-22470.27
0.9371,0.0629	-22503.56
0.9563,0.0437	-22491.50
0.9986,0.0014	-22469.50
0.9990,0.0010	-22476.37
0.9977,0.0023	-22469.63
0.9933,0.0067	-22470.29
0.9232,0.0768	-22508.98
0.9604,0.0396	-22488.16
0.9988,0.0012	-22469.47
0.9991,0.0009	-22469.41
0.9982,0.0018	-22469.56
0.9933,0.0067	-22475.29
0.9258,0.0742	-22503.90
0.9530,0.0470	-22488.65
0.9987,0.0013	-22469.47
0.9991,0.0009	-22469.41
0.9984,0.0016	-22469.53
0.9935,0.0065	-22480.32
0.9384,0.0616	-22503.54
0.9560,0.0440	-22485.35
0.9988,0.0012	-22476.21
0.9991,0.0009	-22469.42
0.9985,0.0015	-22469.51
0.9941,0.0059	-22475.29
0.9479,0.0521	-22503.56
0.9502,0.0498	-22491.81
0.9986,0.0014	-22476.06
0.9990,0.0010	-22469.43
0.9981,0.0019	-22469.57
0.9940,0.0060	-22470.19
0.9368,0.0632	-22495.48
0.9583,0.0417	-22497.69
0.9987,0.0013	-22469.48
0.9993,0.0007	-22469.39
0.9986,0.0014	-22469.49
0.9936,0.0064	-22470.24
0.9398,0.0602	-22509.02
0.9544,0.0456	-22491.59
0.9984,0.0016	-22469.52
0.9993,0.0007	-22469.39
0.9981,0.0019	-22469.57
0.9926,0.0074	-22475.29
0.9361,0.0639	-22503.58
0.9522,0.0478	-22491.70
0.9987,0.0013	-22469.48
0.9991,0.0009	-22469.41
0.9980,0.0020	-22469.58
0.9925,0.0075	-22470.41
0.9419,0.0581	-22492.38
0.9408,0.0592	-22509.05
0.9988,0.0012	-22469.46
0.9991,0.0009	-22469.42
0.9981,0.0019	-22469.57
0.9925,0.0075	-22470.40
0.9379,0.0621	-22503.55
0.9470,0.0530	-22492.01
0.9988,0.0012	-22469.46
0.9991,0.0009	-22469.42
0.9984,0.0016	-22469.52
0.9933,0.0067	-22470.28
0.9381,0.0619	-22500.83
0.9287,0.0713	-22501.22
0.9989,0.0011	-22469.45
0.9991,0.0009	-22476.46
0.9981,0.0019	-22469.57
0.9914,0.0086	-22480.07
0.9522,0.0478	-22494.69
0.9296,0.0704	-22508.91
0.9990,0.0010	-22469.43
0.9990,0.0010	-22469.43
0.9981,0.0019	-22475.82
0.9914,0.0086	-22480.07
0.9516,0.0484	-22482.79
0.9266,0.0734	-22501.33
0.9990,0.0010	-22469.44
0.9988,0.0012	-22469.46
0.9978,0.0022	-22469.62
0.9900,0.0100	-22484.57
0.9368,0.0632	-22500.87
0.9355,0.0645	-22500.92
0.9990,0.0010	-22469.44
0.9990,0.0010	-22469.43
0.9977,0.0023	-22469.63
0.9919,0.0081	-22475.31
0.9271,0.0729	-22498.76
0.9351,0.0649	-22495.60
0.9989,0.0011	-22469.45
0.9991,0.0009	-22469.42
0.9975,0.0025	-22469.65
0.9893,0.0107	-22470.89
0.9351,0.0649	-22492.93
0.9385,0.0615	-22498.09
0.9988,0.0012	-22469.46
0.9991,0.0009	-22469.42
0.9974,0.0026	-22475.62
0.9884,0.0116	-22471.03
0.9272,0.0728	-22511.47
0.9285,0.0715	-22501.22
0.9986,0.0014	-22469.49
0.9989,0.0011	-22469.45
0.9967,0.0033	-22469.78
0.9902,0.0098	-22470.76
0.9314,0.0686	-22495.87
0.9289,0.0711	-22511.49
0.9986,0.0014	-22469.49
0.9990,0.0010	-22469.44
0.9951,0.0049	-22470.02
0.9857,0.0143	-22475.68
0.9292,0.0708	-22506.34
0.9223,0.0777	-22501.58
0.9986,0.0014	-22469.49
0.9992,0.0008	-22469.40
0.9928,0.0072	-22475.29
0.9846,0.0154	-22475.76
0.9180,0.0820	-22501.86
0.9381,0.0619	-22495.40
0.9984,0.0016	-22469.53
0.9993,0.0007	-22469.39
0.9912,0.0088	-22470.61
0.9872,0.0128	-22471.21
0.9297,0.0703	-22501.17
0.9334,0.0666	-22501.00
0.9981,0.0019	-22469.56
0.9993,0.0007	-22469.39
0.9915,0.0085	-22470.56
0.9876,0.0124	-22475.53
0.9284,0.0716	-22498.67
0.9282,0.0718	-22501.24
0.9980,0.0020	-22469.58
0.9993,0.0007	-22469.39
0.9921,0.0079	-22475.30
0.9864,0.0136	-22479.90
0.9472,0.0528	-22497.77
0.9329,0.0671	-22501.02
0.9982,0.0018	-22469.55
0.9993,0.0007	-22469.38
0.9932,0.0068	-22485.26
0.9833,0.0167	-22484.04
0.9471,0.0529	-22492.01
0.9288,0.0712	-22488.37
0.9977,0.0023	-22481.80
0.9993,0.0007	-22469.38
0.9945,0.0055	-22470.11
0.9806,0.0194	-22472.23
0.9414,0.0586	-22497.97
0.9251,0.0749	-22501.41
0.9981,0.0019	-22469.56
0.9994,0.0006	-22469.38
0.9939,0.0061	-22475.29
0.9790,0.0210	-22484.00
0.9449,0.0551	-22503.52
0.9022,0.0978	-22509.80
0.9986,0.0014	-22469.49
0.9993,0.0007	-22469.39
0.9938,0.0062	-22470.21
0.9822,0.0178	-22475.99
0.9316,0.0684	-22503.69
0.9066,0.0934	-22500.48
0.9984,0.0016	-22469.52
0.9992,0.0008	-22469.40
0.9953,0.0047	-22475.34
0.9815,0.0185	-22480.03
0.9529,0.0471	-22503.69
0.9164,0.0836	-22504.37
0.9987,0.0013	-22469.48
0.9988,0.0012	-22469.46
0.9950,0.0050	-22470.03
0.9813,0.0187	-22480.04
0.9643,0.0357	-22478.08
0.9302,0.0698	-22488.19
0.9985,0.0015	-22469.50
0.9987,0.0013	-22476.10
0.9930,0.0070	-22470.33
0.9867,0.0133	-22475.59
0.9687,0.0313	-22494.68
0.9206,0.0794	-22518.84
0.9987,0.0013	-22469.48
0.9984,0.0016	-22469.53
0.9948,0.0052	-22470.06
0.9882,0.0118	-22475.48
0.9712,0.0288	-22494.80
0.9269,0.0731	-22486.07
0.9986,0.0014	-22469.49
0.9984,0.0016	-22475.97
0.9949,0.0051	-22475.32
0.9857,0.0143	-22471.45
0.9739,0.0261	-22484.13
0.9265,0.0735	-22503.87
0.9986,0.0014	-22469.49
0.9985,0.0015	-22469.51
0.9945,0.0055	-22475.30
0.9853,0.0147	-22479.91
0.9694,0.0306	-22487.80
0.9195,0.0805	-22511.50
0.9983,0.0017	-22475.90
0.9979,0.0021	-22469.60
0.9939,0.0061	-22475.29
0.9861,0.0139	-22471.38
0.9586,0.0414	-22497.70
0.9020,0.0980	-22516.47
0.9981,0.0019	-22469.56
0.9979,0.0021	-22469.59
0.9939,0.0061	-22470.20
0.9891,0.0109	-22470.93
0.9669,0.0331	-22487.87
0.9095,0.0905	-22514.04
0.9982,0.0018	-22469.55
0.9981,0.0019	-22469.57
0.9922,0.0078	-22475.30
0.9895,0.0105	-22470.86
0.9653,0.0347	-22497.91
0.9074,0.0926	-22520.94
0.9973,0.0027	-22469.69
