#isoforms=['ENSG00000110080.SE.2.A.up_ENSG00000110080.SE.2.A.SE1_ENSG00000110080.SE.2.A.dn','ENSG00000110080.SE.2.B.up_ENSG00000110080.SE.2.B.dn']	exon_lens=('ENSG00000110080.SE.2.A.up',61),('ENSG00000110080.SE.2.A.SE1',96),('ENSG00000110080.SE.2.A.dn',190),('ENSG00000110080.SE.2.B.up',61),('ENSG00000110080.SE.2.B.dn',190)	iters=5000	burn_in=500	lag=10	percent_accept=94.52	proposal_type=drift	counts=(0,0):1282,(0,1):1,(1,0):998,(1,1):700	assigned_counts=0:1698,1:1	chrom=chr11	strand=+	mRNA_starts=126407574,126407574	mRNA_ends=126408496,126408496
sampled_psi	log_score
0.9954,0.0046	-9404.37
0.9876,0.0124	-9419.75
0.9926,0.0074	-9414.25
0.9884,0.0116	-9415.07
0.9834,0.0166	-9425.60
0.9863,0.0137	-9437.32
0.9958,0.0042	-9388.12
0.9868,0.0132	-9415.69
0.9933,0.0067	-9409.32
0.9899,0.0101	-9414.58
0.9853,0.0147	-9433.23
0.9849,0.0151	-9424.99
0.9959,0.0041	-9388.08
0.9877,0.0123	-9432.87
0.9940,0.0060	-9409.36
0.9898,0.0102	-9419.19
0.9844,0.0156	-9425.19
0.9856,0.0144	-9450.08
0.9955,0.0045	-9382.79
0.9838,0.0162	-9413.12
0.9945,0.0055	-9388.65
0.9900,0.0100	-9419.15
0.9872,0.0128	-9411.19
0.9850,0.0150	-9437.50
0.9950,0.0050	-9393.71
0.9807,0.0193	-9434.82
0.9949,0.0051	-9399.01
0.9922,0.0078	-9404.55
0.9879,0.0121	-9428.45
0.9817,0.0183	-9434.41
0.9960,0.0040	-9404.59
0.9824,0.0176	-9434.14
0.9949,0.0051	-9393.73
0.9917,0.0083	-9419.06
0.9897,0.0103	-9446.59
0.9813,0.0187	-9434.59
0.9951,0.0049	-9388.36
0.9803,0.0197	-9442.82
0.9950,0.0050	-9399.01
0.9914,0.0086	-9428.55
0.9864,0.0136	-9428.72
0.9784,0.0216	-9454.96
0.9955,0.0045	-9399.02
0.9799,0.0201	-9462.39
0.9951,0.0049	-9404.32
0.9915,0.0085	-9400.02
0.9846,0.0154	-9445.89
0.9798,0.0202	-9454.64
0.9965,0.0035	-9393.57
0.9848,0.0152	-9420.86
0.9940,0.0060	-9399.13
0.9895,0.0105	-9432.88
0.9845,0.0155	-9420.97
0.9780,0.0220	-9439.89
0.9967,0.0033	-9387.89
0.9866,0.0134	-9450.18
0.9943,0.0057	-9404.24
0.9900,0.0100	-9400.80
0.9852,0.0148	-9433.25
0.9805,0.0195	-9419.26
0.9958,0.0042	-9388.09
0.9885,0.0115	-9423.93
0.9935,0.0065	-9404.29
0.9896,0.0104	-9437.44
0.9857,0.0143	-9420.45
0.9813,0.0187	-9458.33
0.9959,0.0041	-9382.56
0.9903,0.0097	-9409.86
0.9932,0.0068	-9404.34
0.9921,0.0079	-9399.74
0.9859,0.0141	-9424.63
0.9853,0.0147	-9429.05
0.9956,0.0044	-9404.44
0.9884,0.0116	-9419.50
0.9932,0.0068	-9394.36
0.9911,0.0089	-9400.20
0.9858,0.0142	-9420.42
0.9865,0.0135	-9433.00
0.9960,0.0040	-9382.52
0.9861,0.0139	-9437.34
0.9924,0.0076	-9414.25
0.9909,0.0091	-9423.76
0.9830,0.0170	-9470.44
0.9853,0.0147	-9420.63
0.9959,0.0041	-9382.59
0.9847,0.0153	-9425.05
0.9934,0.0066	-9389.27
0.9914,0.0086	-9428.54
0.9817,0.0183	-9454.31
0.9876,0.0124	-9411.00
0.9956,0.0044	-9399.02
0.9879,0.0121	-9424.05
0.9945,0.0055	-9419.84
0.9915,0.0085	-9400.03
0.9825,0.0175	-9438.13
0.9885,0.0115	-9415.02
0.9954,0.0046	-9404.38
0.9881,0.0119	-9410.72
0.9958,0.0042	-9399.05
0.9940,0.0060	-9399.14
0.9818,0.0182	-9430.38
0.9879,0.0121	-9428.45
0.9961,0.0039	-9382.50
0.9870,0.0130	-9419.94
0.9958,0.0042	-9393.57
0.9946,0.0054	-9393.81
0.9806,0.0194	-9423.09
0.9891,0.0109	-9410.30
0.9969,0.0031	-9382.09
0.9837,0.0163	-9437.79
0.9950,0.0050	-9409.59
0.9954,0.0046	-9393.63
0.9816,0.0184	-9434.46
0.9906,0.0094	-9405.10
0.9974,0.0026	-9381.92
0.9842,0.0158	-9437.66
0.9959,0.0041	-9388.06
0.9942,0.0058	-9409.39
0.9838,0.0162	-9437.77
0.9914,0.0086	-9409.55
0.9980,0.0020	-9381.83
0.9816,0.0184	-9438.43
0.9966,0.0034	-9376.52
0.9949,0.0051	-9399.01
0.9842,0.0158	-9433.54
0.9916,0.0084	-9419.05
0.9980,0.0020	-9388.03
0.9806,0.0194	-9458.40
0.9969,0.0031	-9376.36
0.9948,0.0052	-9399.02
0.9845,0.0155	-9437.60
0.9922,0.0078	-9409.40
0.9981,0.0019	-9381.82
0.9828,0.0172	-9438.02
0.9972,0.0028	-9376.08
0.9963,0.0037	-9393.56
0.9843,0.0157	-9408.65
0.9939,0.0061	-9409.35
0.9974,0.0026	-9381.93
0.9761,0.0239	-9474.23
0.9969,0.0031	-9382.11
0.9962,0.0038	-9399.14
0.9887,0.0113	-9423.90
0.9946,0.0054	-9399.04
0.9977,0.0023	-9381.86
0.9782,0.0218	-9462.64
0.9972,0.0028	-9387.86
0.9968,0.0032	-9399.37
0.9865,0.0135	-9428.71
0.9958,0.0042	-9382.65
0.9973,0.0027	-9399.66
0.9801,0.0199	-9435.10
0.9974,0.0026	-9381.94
0.9965,0.0035	-9387.92
0.9887,0.0113	-9419.42
0.9953,0.0047	-9382.96
0.9967,0.0033	-9393.60
0.9805,0.0195	-9454.50
0.9972,0.0028	-9381.98
0.9965,0.0035	-9387.92
0.9856,0.0144	-9428.94
0.9949,0.0051	-9383.22
0.9966,0.0034	-9399.28
0.9852,0.0148	-9437.46
0.9965,0.0035	-9387.92
0.9958,0.0042	-9377.20
0.9883,0.0117	-9419.52
0.9964,0.0036	-9387.94
0.9968,0.0032	-9393.62
0.9850,0.0150	-9437.51
0.9961,0.0039	-9388.03
0.9949,0.0051	-9409.56
0.9876,0.0124	-9419.75
0.9963,0.0037	-9387.98
0.9967,0.0033	-9382.16
0.9848,0.0152	-9445.88
0.9958,0.0042	-9393.57
0.9952,0.0048	-9393.67
0.9871,0.0129	-9432.92
0.9968,0.0032	-9382.12
0.9958,0.0042	-9404.52
0.9869,0.0131	-9445.91
0.9945,0.0055	-9393.87
0.9948,0.0052	-9404.27
0.9884,0.0116	-9397.30
0.9961,0.0039	-9382.47
0.9938,0.0062	-9409.34
0.9878,0.0122	-9424.08
0.9956,0.0044	-9393.59
0.9950,0.0050	-9393.71
0.9846,0.0154	-9420.93
0.9959,0.0041	-9388.08
0.9948,0.0052	-9414.77
0.9838,0.0162	-9454.19
0.9953,0.0047	-9377.59
0.9954,0.0046	-9399.00
0.9836,0.0164	-9409.12
0.9962,0.0038	-9399.12
0.9948,0.0052	-9383.26
0.9833,0.0167	-9437.90
0.9957,0.0043	-9388.12
0.9957,0.0043	-9399.03
0.9814,0.0186	-9438.51
0.9965,0.0035	-9393.57
0.9946,0.0054	-9383.38
0.9856,0.0144	-9437.40
0.9950,0.0050	-9388.41
0.9964,0.0036	-9393.57
0.9814,0.0186	-9438.50
0.9970,0.0030	-9399.49
0.9939,0.0061	-9399.16
0.9830,0.0170	-9429.84
0.9954,0.0046	-9399.01
0.9974,0.0026	-9381.93
0.9838,0.0162	-9433.66
0.9970,0.0030	-9382.05
0.9948,0.0052	-9393.75
0.9878,0.0122	-9432.85
0.9953,0.0047	-9382.96
0.9973,0.0027	-9381.95
0.9851,0.0149	-9441.67
0.9975,0.0025	-9381.90
0.9950,0.0050	-9393.71
0.9878,0.0122	-9437.25
0.9950,0.0050	-9409.61
0.9977,0.0023	-9375.79
0.9849,0.0151	-9412.46
0.9975,0.0025	-9381.90
0.9962,0.0038	-9388.00
0.9891,0.0109	-9428.34
0.9961,0.0039	-9399.09
0.9972,0.0028	-9399.60
0.9845,0.0155	-9421.01
0.9968,0.0032	-9387.88
0.9954,0.0046	-9388.26
0.9897,0.0103	-9414.65
0.9962,0.0038	-9382.41
0.9971,0.0029	-9376.18
0.9832,0.0168	-9437.93
0.9971,0.0029	-9411.19
0.9955,0.0045	-9404.41
0.9909,0.0091	-9428.45
0.9970,0.0030	-9393.68
0.9969,0.0031	-9387.87
0.9833,0.0167	-9429.73
0.9967,0.0033	-9393.61
0.9950,0.0050	-9393.72
0.9911,0.0089	-9419.06
0.9969,0.0031	-9382.10
0.9970,0.0030	-9376.24
0.9846,0.0154	-9429.26
0.9967,0.0033	-9382.20
0.9930,0.0070	-9399.41
0.9906,0.0094	-9405.09
0.9970,0.0030	-9387.87
0.9970,0.0030	-9387.86
0.9845,0.0155	-9416.85
0.9974,0.0026	-9393.83
0.9950,0.0050	-9388.41
0.9918,0.0082	-9395.06
0.9972,0.0028	-9387.86
0.9970,0.0030	-9387.87
0.9850,0.0150	-9441.69
0.9983,0.0017	-9388.19
0.9956,0.0044	-9388.18
0.9929,0.0071	-9404.38
0.9962,0.0038	-9399.12
0.9977,0.0023	-9381.87
0.9873,0.0127	-9406.78
0.9980,0.0020	-9406.58
0.9961,0.0039	-9399.10
0.9938,0.0062	-9394.11
0.9951,0.0049	-9388.36
0.9972,0.0028	-9393.76
0.9883,0.0117	-9419.52
0.9976,0.0024	-9375.82
0.9961,0.0039	-9393.56
0.9949,0.0051	-9399.01
0.9958,0.0042	-9388.11
0.9971,0.0029	-9393.71
0.9901,0.0099	-9405.34
0.9980,0.0020	-9388.05
0.9963,0.0037	-9404.75
0.9942,0.0058	-9393.97
0.9956,0.0044	-9393.60
0.9968,0.0032	-9382.12
0.9925,0.0075	-9394.70
0.9978,0.0022	-9381.84
0.9969,0.0031	-9399.41
0.9942,0.0058	-9404.24
0.9951,0.0049	-9393.69
0.9965,0.0035	-9382.29
0.9927,0.0073	-9394.61
0.9977,0.0023	-9400.06
0.9970,0.0030	-9405.32
0.9934,0.0066	-9399.29
0.9942,0.0058	-9409.39
0.9966,0.0034	-9399.26
0.9918,0.0082	-9409.46
0.9977,0.0023	-9387.92
0.9970,0.0030	-9393.67
0.9929,0.0071	-9429.11
0.9940,0.0060	-9388.94
0.9965,0.0035	-9382.28
0.9939,0.0061	-9394.07
0.9975,0.0025	-9381.89
0.9970,0.0030	-9399.46
0.9931,0.0069	-9399.38
0.9930,0.0070	-9394.46
0.9964,0.0036	-9393.57
0.9924,0.0076	-9399.63
0.9976,0.0024	-9375.86
0.9970,0.0030	-9393.66
0.9923,0.0077	-9404.53
0.9941,0.0059	-9393.99
0.9972,0.0028	-9393.76
0.9915,0.0085	-9400.00
0.9973,0.0027	-9381.96
0.9967,0.0033	-9393.61
0.9920,0.0080	-9394.96
0.9948,0.0052	-9399.02
0.9971,0.0029	-9399.58
0.9915,0.0085	-9404.77
0.9969,0.0031	-9382.10
0.9962,0.0038	-9388.00
0.9930,0.0070	-9414.28
0.9945,0.0055	-9404.25
0.9966,0.0034	-9382.23
0.9905,0.0095	-9419.10
0.9967,0.0033	-9387.89
0.9952,0.0048	-9404.33
0.9932,0.0068	-9404.34
0.9944,0.0056	-9399.07
0.9958,0.0042	-9404.50
0.9905,0.0095	-9405.13
0.9974,0.0026	-9399.79
0.9944,0.0056	-9388.70
0.9919,0.0081	-9409.44
0.9938,0.0062	-9389.01
0.9945,0.0055	-9393.87
0.9909,0.0091	-9409.68
0.9968,0.0032	-9393.62
0.9942,0.0058	-9429.94
0.9907,0.0093	-9419.08
0.9931,0.0069	-9399.37
0.9941,0.0059	-9393.99
0.9887,0.0113	-9410.48
0.9961,0.0039	-9382.46
0.9947,0.0053	-9393.78
0.9919,0.0081	-9409.45
0.9922,0.0078	-9423.94
0.9930,0.0070	-9399.40
0.9889,0.0111	-9419.37
0.9956,0.0044	-9404.45
0.9940,0.0060	-9394.02
0.9896,0.0104	-9410.11
0.9901,0.0099	-9405.35
0.9925,0.0075	-9414.25
0.9915,0.0085	-9400.01
0.9971,0.0029	-9376.20
0.9946,0.0054	-9388.59
0.9899,0.0101	-9405.44
0.9884,0.0116	-9432.83
0.9953,0.0047	-9393.64
0.9907,0.0093	-9414.41
0.9966,0.0034	-9399.28
0.9931,0.0069	-9419.26
0.9888,0.0112	-9419.39
0.9852,0.0148	-9475.26
0.9947,0.0053	-9388.58
0.9907,0.0093	-9391.10
0.9958,0.0042	-9393.58
0.9928,0.0072	-9394.55
0.9909,0.0091	-9428.45
0.9885,0.0115	-9415.01
0.9954,0.0046	-9399.01
0.9902,0.0098	-9409.91
0.9966,0.0034	-9376.54
0.9933,0.0067	-9409.32
0.9907,0.0093	-9405.06
0.9879,0.0121	-9410.82
0.9957,0.0043	-9399.03
0.9921,0.0079	-9399.75
0.9966,0.0034	-9382.24
0.9938,0.0062	-9389.01
0.9921,0.0079	-9399.76
0.9854,0.0146	-9416.36
0.9957,0.0043	-9399.03
0.9904,0.0096	-9405.19
0.9978,0.0022	-9394.10
0.9934,0.0066	-9409.32
0.9911,0.0089	-9400.20
0.9880,0.0120	-9428.43
0.9955,0.0045	-9399.01
0.9921,0.0079	-9409.42
0.9980,0.0020	-9381.82
0.9934,0.0066	-9394.30
0.9898,0.0102	-9396.33
0.9876,0.0124	-9402.22
0.9960,0.0040	-9393.56
0.9941,0.0059	-9399.12
0.9980,0.0020	-9381.83
0.9910,0.0090	-9414.36
0.9902,0.0098	-9423.74
0.9873,0.0127	-9411.15
0.9955,0.0045	-9399.01
0.9936,0.0064	-9384.09
0.9977,0.0023	-9387.94
0.9901,0.0099	-9409.94
0.9932,0.0068	-9384.42
0.9910,0.0090	-9433.18
0.9947,0.0053	-9393.79
0.9935,0.0065	-9394.24
0.9968,0.0032	-9399.35
0.9900,0.0100	-9405.37
0.9936,0.0064	-9409.33
0.9907,0.0093	-9414.41
0.9950,0.0050	-9404.31
0.9942,0.0058	-9404.24
0.9965,0.0035	-9387.92
0.9884,0.0116	-9406.18
0.9921,0.0079	-9390.09
0.9918,0.0082	-9409.48
0.9955,0.0045	-9399.01
0.9939,0.0061	-9404.25
0.9961,0.0039	-9393.56
0.9886,0.0114	-9423.91
0.9926,0.0074	-9409.36
0.9920,0.0080	-9404.61
0.9959,0.0041	-9404.55
0.9953,0.0047	-9404.35
0.9959,0.0041	-9410.06
0.9877,0.0123	-9432.86
0.9925,0.0075	-9428.89
0.9911,0.0089	-9400.21
0.9942,0.0058	-9393.96
0.9951,0.0049	-9393.68
0.9965,0.0035	-9387.92
0.9899,0.0101	-9409.99
0.9940,0.0060	-9404.25
0.9896,0.0104	-9414.68
0.9943,0.0057	-9399.08
0.9947,0.0053	-9399.03
0.9966,0.0034	-9393.59
0.9903,0.0097	-9405.24
0.9951,0.0049	-9383.06
0.9907,0.0093	-9419.08
0.9944,0.0056	-9409.42
0.9955,0.0045	-9409.79
0.9970,0.0030	-9399.45
0.9912,0.0088	-9419.05
0.9948,0.0052	-9409.52
0.9930,0.0070	-9414.28
0.9922,0.0078	-9404.56
0.9959,0.0041	-9388.07
0.9973,0.0027	-9381.95
0.9928,0.0072	-9404.42
0.9950,0.0050	-9388.44
0.9934,0.0066	-9394.26
0.9917,0.0083	-9399.92
0.9960,0.0040	-9388.06
0.9958,0.0042	-9393.58
0.9940,0.0060	-9394.04
0.9945,0.0055	-9393.84
0.9952,0.0048	-9404.33
0.9916,0.0084	-9414.28
0.9957,0.0043	-9399.03
0.9961,0.0039	-9388.00
0.9931,0.0069	-9409.32
0.9950,0.0050	-9404.30
0.9968,0.0032	-9405.07
0.9907,0.0093	-9409.74
0.9957,0.0043	-9388.15
0.9962,0.0038	-9387.98
0.9929,0.0071	-9414.27
0.9940,0.0060	-9404.25
0.9965,0.0035	-9376.59
0.9883,0.0117	-9415.09
0.9965,0.0035	-9382.27
0.9961,0.0039	-9388.01
0.9930,0.0070	-9409.33
0.9937,0.0063	-9394.15
0.9957,0.0043	-9388.16
0.9898,0.0102	-9419.19
0.9970,0.0030	-9387.86
0.9961,0.0039	-9399.11
0.9904,0.0096	-9395.94
0.9938,0.0062	-9414.41
0.9955,0.0045	-9404.42
0.9889,0.0111	-9419.37
0.9961,0.0039	-9399.11
0.9957,0.0043	-9409.91
0.9900,0.0100	-9409.95
0.9933,0.0067	-9399.33
0.9950,0.0050	-9377.82
0.9882,0.0118	-9410.69
0.9953,0.0047	-9404.35
0.9961,0.0039	-9399.09
0.9908,0.0092	-9409.71
0.9920,0.0080	-9404.62
0.9929,0.0071	-9414.27
0.9900,0.0100	-9419.15
0.9960,0.0040	-9382.51
0.9965,0.0035	-9399.22
0.9932,0.0068	-9409.32
0.9890,0.0110	-9428.34
0.9928,0.0072	-9389.66
0.9891,0.0109	-9423.83
0.9966,0.0034	-9387.91
0.9964,0.0036	-9382.33
0.9932,0.0068	-9404.33
0.9886,0.0114	-9428.37
0.9911,0.0089	-9400.20
0.9892,0.0108	-9419.31
0.9966,0.0034	-9387.91
0.9972,0.0028	-9381.98
0.9925,0.0075	-9414.25
0.9891,0.0109	-9410.29
0.9894,0.0106	-9423.80
0.9905,0.0095	-9414.45
0.9965,0.0035	-9393.58
0.9973,0.0027	-9387.87
0.9924,0.0076	-9419.11
0.9903,0.0097	-9409.87
0.9886,0.0114	-9406.04
0.9911,0.0089	-9404.92
0.9966,0.0034	-9404.93
0.9976,0.0024	-9387.92
0.9916,0.0084	-9419.05
0.9889,0.0111	-9410.37
0.9896,0.0104	-9410.11
0.9900,0.0100	-9432.94
0.9962,0.0038	-9393.56
0.9975,0.0025	-9387.90
0.9904,0.0096	-9400.59
0.9870,0.0130	-9411.31
0.9899,0.0101	-9432.93
0.9908,0.0092	-9400.36
0.9960,0.0040	-9388.05
0.9970,0.0030	-9387.86
0.9904,0.0096	-9395.94
0.9903,0.0097	-9409.86
0.9917,0.0083	-9414.28
0.9918,0.0082	-9438.23
0.9959,0.0041	-9382.59
0.9977,0.0023	-9387.93
0.9892,0.0108	-9423.82
0.9916,0.0084	-9395.19
0.9920,0.0080	-9423.90
0.9905,0.0095	-9391.24
0.9961,0.0039	-9388.00
0.9977,0.0023	-9381.86
0.9889,0.0111	-9423.86
0.9929,0.0071	-9399.45
0.9938,0.0062	-9394.09
0.9906,0.0094	-9400.48
0.9966,0.0034	-9404.95
0.9976,0.0024	-9381.87
0.9899,0.0101	-9400.83
0.9908,0.0092	-9414.39
0.9947,0.0053	-9404.26
0.9901,0.0099	-9409.94
0.9970,0.0030	-9376.24
0.9970,0.0030	-9393.68
0.9911,0.0089	-9419.05
0.9913,0.0087	-9409.58
0.9951,0.0049	-9414.96
0.9901,0.0099	-9414.53
0.9967,0.0033	-9382.17
0.9967,0.0033	-9382.18
0.9916,0.0084	-9409.50
0.9909,0.0091	-9409.68
0.9957,0.0043	-9399.03
0.9897,0.0103	-9419.20
0.9966,0.0034	-9387.90
0.9967,0.0033	-9382.17
0.9900,0.0100	-9437.54
0.9923,0.0077	-9423.97
0.9955,0.0045	-9404.40
0.9890,0.0110	-9419.34
0.9964,0.0036	-9382.33
0.9972,0.0028	-9381.98
0.9907,0.0093	-9405.09
0.9932,0.0068	-9399.35
0.9958,0.0042	-9388.11
0.9892,0.0108	-9423.82
0.9969,0.0031	-9399.39
0.9971,0.0029	-9387.86
0.9891,0.0109	-9405.80
0.9903,0.0097	-9400.59
0.9961,0.0039	-9393.56
0.9870,0.0130	-9441.59
0.9970,0.0030	-9393.67
0.9973,0.0027	-9381.97
0.9895,0.0105	-9419.24
0.9908,0.0092	-9405.02
0.9967,0.0033	-9387.89
0.9871,0.0129	-9411.25
0.9967,0.0033	-9382.20
0.9970,0.0030	-9387.86
0.9890,0.0110	-9405.83
0.9925,0.0075	-9424.03
0.9968,0.0032	-9393.62
0.9902,0.0098	-9382.22
0.9965,0.0035	-9399.22
0.9960,0.0040	-9393.56
0.9888,0.0112	-9428.35
0.9942,0.0058	-9399.10
0.9962,0.0038	-9388.00
0.9908,0.0092	-9419.07
0.9964,0.0036	-9399.17
0.9953,0.0047	-9404.37
0.9890,0.0110	-9405.83
0.9925,0.0075	-9404.49
0.9961,0.0039	-9404.64
0.9923,0.0077	-9409.40
0.9952,0.0048	-9382.97
0.9955,0.0045	-9393.62
0.9924,0.0076	-9419.11
0.9932,0.0068	-9404.34
0.9957,0.0043	-9404.46
0.9925,0.0075	-9394.70
0.9949,0.0051	-9404.29
0.9944,0.0056	-9383.54
0.9901,0.0099	-9414.53
0.9921,0.0079	-9423.91
0.9962,0.0038	-9393.56
0.9933,0.0067	-9409.32
0.9943,0.0057	-9404.24
0.9935,0.0065	-9384.20
0.9881,0.0119	-9428.43
0.9912,0.0088	-9404.89
0.9946,0.0054	-9404.26
0.9917,0.0083	-9404.70
0.9951,0.0049	-9399.00
0.9940,0.0060	-9388.93
0.9853,0.0147	-9403.82
0.9892,0.0108	-9410.28
0.9941,0.0059	-9399.12
0.9904,0.0096	-9428.38
0.9937,0.0063	-9404.27
0.9935,0.0065	-9404.29
0.9872,0.0128	-9424.23
0.9891,0.0109	-9423.83
0.9922,0.0078	-9409.40
0.9900,0.0100	-9414.56
0.9940,0.0060	-9388.94
0.9924,0.0076	-9394.77
0.9902,0.0098	-9423.75
0.9876,0.0124	-9419.73
0.9932,0.0068	-9399.34
0.9905,0.0095	-9391.19
0.9951,0.0049	-9377.76
0.9924,0.0076	-9389.90
0.9911,0.0089	-9419.06
0.9894,0.0106	-9432.87
0.9924,0.0076	-9394.74
0.9901,0.0099	-9419.15
0.9954,0.0046	-9388.24
0.9908,0.0092	-9428.42
0.9920,0.0080	-9423.89
0.9889,0.0111	-9432.84
0.9910,0.0090	-9395.57
0.9888,0.0112	-9419.40
0.9952,0.0048	-9399.00
0.9922,0.0078	-9409.40
0.9939,0.0061	-9388.96
0.9885,0.0115	-9410.56
0.9918,0.0082	-9409.47
0.9877,0.0123	-9406.56
0.9957,0.0043	-9382.69
0.9899,0.0101	-9419.17
0.9936,0.0064	-9389.12
0.9876,0.0124	-9419.74
0.9914,0.0086	-9423.79
0.9875,0.0125	-9424.13
0.9954,0.0046	-9399.01
0.9907,0.0093	-9405.09
0.9928,0.0072	-9379.75
0.9891,0.0109	-9401.29
0.9906,0.0094	-9405.09
0.9898,0.0102	-9451.21
0.9962,0.0038	-9393.56
0.9895,0.0105	-9405.62
0.9944,0.0056	-9393.90
0.9897,0.0103	-9400.95
0.9914,0.0086	-9395.30
0.9910,0.0090	-9404.96
0.9956,0.0044	-9409.88
0.9898,0.0102	-9423.76
0.9943,0.0057	-9399.08
0.9902,0.0098	-9437.59
0.9884,0.0116	-9419.49
0.9927,0.0073	-9399.52
0.9958,0.0042	-9377.16
0.9892,0.0108	-9419.30
0.9922,0.0078	-9404.56
0.9911,0.0089	-9423.77
0.9906,0.0094	-9409.78
0.9938,0.0062	-9394.10
0.9960,0.0040	-9393.56
0.9921,0.0079	-9390.12
0.9914,0.0086	-9400.07
0.9913,0.0087	-9409.58
0.9910,0.0090	-9414.36
0.9950,0.0050	-9383.12
0.9958,0.0042	-9393.57
0.9924,0.0076	-9399.63
0.9913,0.0087	-9419.05
0.9919,0.0081	-9404.64
0.9907,0.0093	-9428.42
0.9956,0.0044	-9399.02
0.9957,0.0043	-9382.68
0.9930,0.0070	-9389.53
0.9927,0.0073	-9409.34
0.9910,0.0090	-9419.06
0.9904,0.0096	-9400.58
0.9960,0.0040	-9393.56
0.9956,0.0044	-9399.02
0.9922,0.0078	-9394.84
0.9952,0.0048	-9404.33
0.9910,0.0090	-9400.26
0.9887,0.0113	-9401.52
0.9949,0.0051	-9414.84
0.9949,0.0051	-9383.16
0.9924,0.0076	-9394.78
0.9952,0.0048	-9393.66
0.9911,0.0089	-9423.76
0.9876,0.0124	-9415.38
0.9946,0.0054	-9399.04
0.9948,0.0052	-9393.76
0.9931,0.0069	-9399.40
0.9945,0.0055	-9399.05
0.9927,0.0073	-9419.17
0.9836,0.0164	-9417.37
0.9938,0.0062	-9409.34
0.9939,0.0061	-9388.95
0.9925,0.0075	-9389.82
0.9954,0.0046	-9409.75
0.9904,0.0096	-9414.47
0.9858,0.0142	-9416.17
0.9919,0.0081	-9390.23
0.9941,0.0059	-9424.72
0.9931,0.0069	-9409.32
0.9951,0.0049	-9393.68
0.9919,0.0081	-9409.44
0.9839,0.0161	-9429.53
0.9944,0.0056	-9404.24
0.9953,0.0047	-9382.95
0.9926,0.0074	-9389.77
0.9953,0.0047	-9393.65
0.9923,0.0077	-9399.68
0.9850,0.0150	-9437.49
0.9935,0.0065	-9404.29
0.9946,0.0054	-9399.04
0.9918,0.0082	-9409.47
0.9953,0.0047	-9393.66
0.9905,0.0095	-9409.81
0.9895,0.0105	-9423.79
0.9933,0.0067	-9394.34
0.9955,0.0045	-9393.61
0.9922,0.0078	-9414.25
0.9950,0.0050	-9383.13
0.9907,0.0093	-9414.42
0.9897,0.0103	-9405.53
0.9934,0.0066	-9409.32
0.9956,0.0044	-9415.29
0.9935,0.0065	-9414.35
0.9950,0.0050	-9388.43
0.9929,0.0071	-9414.27
0.9872,0.0128	-9402.51
0.9918,0.0082	-9404.67
0.9957,0.0043	-9393.59
0.9913,0.0087	-9404.83
0.9932,0.0068	-9399.36
0.9937,0.0063	-9404.27
0.9846,0.0154	-9425.10
0.9927,0.0073	-9409.35
0.9963,0.0037	-9399.16
0.9904,0.0096	-9414.47
0.9930,0.0070	-9384.53
0.9936,0.0064	-9409.32
0.9858,0.0142	-9424.64
0.9934,0.0066	-9389.27
0.9965,0.0035	-9387.93
0.9924,0.0076	-9394.78
0.9942,0.0058	-9399.10
0.9919,0.0081	-9409.46
0.9875,0.0125	-9411.01
0.9928,0.0072	-9389.64
0.9971,0.0029	-9387.86
0.9906,0.0094	-9400.44
0.9950,0.0050	-9388.41
0.9907,0.0093	-9405.07
0.9851,0.0149	-9424.89
0.9935,0.0065	-9399.25
0.9967,0.0033	-9387.89
0.9891,0.0109	-9423.83
0.9954,0.0046	-9393.63
0.9897,0.0103	-9414.64
0.9894,0.0106	-9405.66
0.9929,0.0071	-9399.43
0.9965,0.0035	-9410.55
0.9881,0.0119	-9415.18
0.9944,0.0056	-9399.06
0.9910,0.0090	-9409.67
0.9876,0.0124	-9419.74
0.9939,0.0061	-9394.07
0.9950,0.0050	-9399.01
0.9872,0.0128	-9424.23
0.9949,0.0051	-9388.46
0.9920,0.0080	-9404.62
0.9903,0.0097	-9419.12
0.9938,0.0062	-9389.02
0.9941,0.0059	-9419.65
0.9886,0.0114	-9428.37
0.9950,0.0050	-9393.70
0.9926,0.0074	-9404.46
0.9896,0.0104	-9428.33
0.9947,0.0053	-9414.74
0.9950,0.0050	-9388.42
0.9875,0.0125	-9419.76
0.9949,0.0051	-9388.47
0.9930,0.0070	-9399.40
0.9907,0.0093	-9428.42
0.9935,0.0065	-9399.26
0.9951,0.0049	-9383.06
0.9899,0.0101	-9419.17
0.9928,0.0072	-9394.53
0.9924,0.0076	-9399.64
0.9912,0.0088	-9395.46
0.9945,0.0055	-9404.25
0.9954,0.0046	-9388.27
0.9907,0.0093	-9451.76
0.9935,0.0065	-9409.32
0.9898,0.0102	-9423.77
0.9917,0.0083	-9423.85
0.9945,0.0055	-9404.25
0.9948,0.0052	-9404.27
0.9893,0.0107	-9423.81
0.9927,0.0073	-9404.43
0.9900,0.0100	-9423.75
0.9922,0.0078	-9394.85
0.9939,0.0061	-9419.52
0.9945,0.0055	-9393.84
0.9887,0.0113	-9423.88
0.9895,0.0105	-9419.24
0.9895,0.0105	-9410.14
0.9931,0.0069	-9404.36
0.9940,0.0060	-9388.90
0.9939,0.0061	-9409.35
0.9881,0.0119	-9397.51
0.9891,0.0109	-9401.28
0.9896,0.0104	-9428.33
0.9929,0.0071	-9414.27
0.9944,0.0056	-9388.73
0.9933,0.0067	-9389.32
0.9888,0.0112	-9441.80
0.9897,0.0103	-9414.63
0.9906,0.0094	-9409.76
0.9936,0.0064	-9419.43
0.9953,0.0047	-9399.00
0.9941,0.0059	-9409.37
0.9921,0.0079	-9394.91
0.9901,0.0099	-9423.75
0.9909,0.0091	-9414.38
0.9927,0.0073	-9409.35
0.9952,0.0048	-9393.68
0.9932,0.0068	-9409.32
0.9937,0.0063	-9409.33
0.9919,0.0081	-9399.84
0.9920,0.0080	-9390.17
0.9919,0.0081	-9409.45
0.9946,0.0054	-9399.04
0.9927,0.0073	-9409.34
0.9922,0.0078	-9399.71
0.9892,0.0108	-9414.78
0.9921,0.0079	-9404.59
0.9918,0.0082	-9399.90
0.9952,0.0048	-9420.31
0.9916,0.0084	-9419.05
0.9940,0.0060	-9394.02
0.9884,0.0116	-9406.16
0.9921,0.0079	-9419.09
0.9927,0.0073	-9409.35
0.9948,0.0052	-9409.51
0.9899,0.0101	-9423.76
0.9941,0.0059	-9383.75
0.9898,0.0102	-9423.76
0.9910,0.0090	-9419.06
0.9928,0.0072	-9419.18
0.9949,0.0051	-9393.75
0.9887,0.0113	-9410.49
0.9941,0.0059	-9414.51
0.9901,0.0099	-9419.14
0.9918,0.0082	-9404.67
0.9933,0.0067	-9399.33
0.9945,0.0055	-9399.05
0.9898,0.0102	-9419.20
0.9934,0.0066	-9409.32
0.9903,0.0097	-9423.74
0.9926,0.0074	-9399.56
0.9941,0.0059	-9414.49
0.9941,0.0059	-9399.12
0.9907,0.0093	-9400.42
0.9950,0.0050	-9404.29
0.9878,0.0122	-9406.48
0.9913,0.0087	-9395.37
0.9946,0.0054	-9425.13
0.9957,0.0043	-9393.59
0.9883,0.0117	-9415.10
0.9946,0.0054	-9399.04
0.9867,0.0133	-9437.28
0.9911,0.0089	-9414.34
0.9951,0.0049	-9393.68
0.9962,0.0038	-9382.41
0.9867,0.0133	-9463.10
0.9937,0.0063	-9394.15
0.9854,0.0146	-9424.81
0.9910,0.0090	-9390.83
0.9949,0.0051	-9388.47
0.9953,0.0047	-9382.92
0.9859,0.0141	-9433.12
0.9938,0.0062	-9394.10
0.9862,0.0138	-9424.52
0.9906,0.0094	-9423.75
0.9951,0.0049	-9393.68
0.9949,0.0051	-9388.46
0.9874,0.0126	-9415.45
0.9938,0.0062	-9399.18
0.9849,0.0151	-9424.97
0.9893,0.0107	-9446.44
0.9942,0.0058	-9383.67
0.9944,0.0056	-9399.07
0.9896,0.0104	-9410.10
0.9949,0.0051	-9393.75
0.9808,0.0192	-9419.07
0.9855,0.0145	-9412.12
0.9945,0.0055	-9404.25
0.9936,0.0064	-9399.23
0.9882,0.0118	-9406.26
0.9953,0.0047	-9404.35
0.9816,0.0184	-9474.22
0.9859,0.0141	-9420.38
0.9949,0.0051	-9393.73
0.9933,0.0067	-9409.32
0.9874,0.0126	-9432.89
0.9958,0.0042	-9399.05
0.9862,0.0138	-9445.86
0.9838,0.0162	-9425.46
0.9963,0.0037	-9382.35
0.9942,0.0058	-9409.39
0.9887,0.0113	-9414.94
0.9961,0.0039	-9404.65
0.9876,0.0124	-9424.13
0.9859,0.0141	-9420.36
0.9957,0.0043	-9388.15
0.9926,0.0074	-9404.45
0.9902,0.0098	-9419.13
0.9960,0.0040	-9399.07
0.9863,0.0137	-9411.65
0.9886,0.0114	-9428.37
0.9968,0.0032	-9399.36
0.9918,0.0082	-9404.68
0.9904,0.0096	-9400.55
0.9951,0.0049	-9393.69
0.9884,0.0116	-9406.15
0.9883,0.0117	-9392.93
0.9974,0.0026	-9381.93
0.9911,0.0089	-9395.48
0.9866,0.0134	-9411.47
0.9951,0.0049	-9399.00
0.9886,0.0114	-9419.44
0.9901,0.0099	-9423.75
0.9970,0.0030	-9382.04
0.9936,0.0064	-9394.19
0.9852,0.0148	-9412.28
0.9947,0.0053	-9409.50
0.9884,0.0116	-9419.50
0.9898,0.0102	-9428.34
0.9974,0.0026	-9376.01
0.9931,0.0069	-9399.37
0.9846,0.0154	-9429.26
0.9955,0.0045	-9382.80
0.9884,0.0116	-9423.94
0.9897,0.0103	-9428.34
0.9974,0.0026	-9381.93
0.9939,0.0061	-9404.25
0.9858,0.0142	-9433.13
0.9961,0.0039	-9393.56
0.9886,0.0114	-9410.54
0.9899,0.0101	-9405.40
0.9977,0.0023	-9381.85
0.9937,0.0063	-9419.47
0.9875,0.0125	-9406.68
0.9957,0.0043	-9399.03
0.9872,0.0128	-9415.52
0.9875,0.0125	-9424.15
0.9969,0.0031	-9399.45
0.9936,0.0064	-9404.28
0.9831,0.0169	-9433.89
0.9961,0.0039	-9388.01
0.9858,0.0142	-9416.16
0.9870,0.0130	-9415.62
0.9964,0.0036	-9399.19
0.9936,0.0064	-9384.09
0.9817,0.0183	-9450.34
0.9950,0.0050	-9393.72
0.9871,0.0129	-9406.87
0.9871,0.0129	-9441.60
0.9973,0.0027	-9393.79
0.9951,0.0049	-9393.69
0.9813,0.0187	-9454.37
0.9956,0.0044	-9388.19
0.9878,0.0122	-9424.07
0.9883,0.0117	-9428.40
0.9968,0.0032	-9382.13
0.9952,0.0048	-9388.33
0.9793,0.0207	-9462.46
0.9965,0.0035	-9393.57
0.9870,0.0130	-9419.93
0.9875,0.0125	-9428.51
0.9968,0.0032	-9376.43
0.9947,0.0053	-9399.03
0.9826,0.0174	-9466.33
0.9969,0.0031	-9399.41
0.9843,0.0157	-9437.63
0.9874,0.0126	-9411.09
0.9972,0.0028	-9382.00
0.9957,0.0043	-9399.03
0.9849,0.0151	-9416.61
0.9958,0.0042	-9382.62
0.9860,0.0140	-9424.59
0.9881,0.0119	-9432.84
0.9972,0.0028	-9376.13
0.9962,0.0038	-9399.12
0.9844,0.0156	-9437.62
0.9958,0.0042	-9388.11
0.9893,0.0107	-9428.34
0.9912,0.0088	-9419.05
0.9959,0.0041	-9404.57
0.9956,0.0044	-9388.17
0.9868,0.0132	-9432.96
0.9957,0.0043	-9388.14
0.9902,0.0098	-9414.51
0.9919,0.0081	-9395.01
0.9959,0.0041	-9399.06
0.9947,0.0053	-9393.80
0.9881,0.0119	-9428.43
0.9951,0.0049	-9383.05
0.9906,0.0094	-9400.47
0.9930,0.0070	-9404.37
0.9957,0.0043	-9388.12
0.9936,0.0064	-9399.24
0.9892,0.0108	-9428.34
0.9961,0.0039	-9382.50
0.9919,0.0081	-9404.64
0.9939,0.0061	-9399.15
0.9950,0.0050	-9399.01
0.9930,0.0070	-9399.43
0.9917,0.0083	-9409.49
0.9954,0.0046	-9393.63
0.9930,0.0070	-9389.52
0.9936,0.0064	-9399.23
0.9957,0.0043	-9393.59
0.9927,0.0073	-9414.25
0.9918,0.0082	-9409.47
0.9958,0.0042	-9393.57
0.9920,0.0080	-9404.61
0.9940,0.0060	-9429.84
0.9961,0.0039	-9388.02
0.9953,0.0047	-9399.00
0.9915,0.0085	-9381.03
0.9964,0.0036	-9382.34
0.9910,0.0090	-9414.36
0.9929,0.0071	-9404.39
0.9963,0.0037	-9399.15
0.9959,0.0041	-9393.57
0.9929,0.0071	-9404.39
0.9969,0.0031	-9387.87
0.9923,0.0077	-9399.65
0.9922,0.0078	-9399.73
0.9961,0.0039	-9393.56
0.9967,0.0033	-9382.18
0.9900,0.0100	-9405.36
0.9969,0.0031	-9382.08
0.9919,0.0081	-9438.28
0.9921,0.0079	-9394.91
0.9953,0.0047	-9388.30
0.9967,0.0033	-9393.61
0.9905,0.0095	-9400.49
0.9969,0.0031	-9382.11
0.9881,0.0119	-9432.84
0.9906,0.0094	-9423.74
0.9957,0.0043	-9393.59
0.9969,0.0031	-9376.31
0.9916,0.0084	-9399.96
0.9968,0.0032	-9393.63
0.9897,0.0103	-9419.20
0.9908,0.0092	-9395.68
0.9970,0.0030	-9387.86
0.9969,0.0031	-9387.87
0.9936,0.0064	-9394.21
0.9969,0.0031	-9387.87
0.9922,0.0078	-9404.55
0.9893,0.0107	-9428.34
0.9976,0.0024	-9375.85
0.9950,0.0050	-9399.01
0.9941,0.0059	-9399.12
0.9972,0.0028	-9387.86
0.9905,0.0095	-9433.03
0.9928,0.0072	-9414.26
0.9967,0.0033	-9387.90
0.9941,0.0059	-9409.37
0.9934,0.0066	-9399.29
0.9968,0.0032	-9399.35
0.9884,0.0116	-9423.95
0.9919,0.0081	-9404.64
0.9971,0.0029	-9393.72
0.9949,0.0051	-9388.49
0.9942,0.0058	-9404.24
0.9969,0.0031	-9387.87
0.9873,0.0127	-9424.20
0.9915,0.0085	-9409.54
0.9973,0.0027	-9381.96
0.9945,0.0055	-9399.05
0.9937,0.0063	-9399.20
0.9969,0.0031	-9393.63
0.9900,0.0100	-9409.97
0.9906,0.0094	-9414.43
0.9975,0.0025	-9417.76
0.9935,0.0065	-9394.25
0.9941,0.0059	-9414.49
0.9971,0.0029	-9393.69
0.9879,0.0121	-9424.06
0.9884,0.0116	-9419.50
0.9978,0.0022	-9381.85
0.9912,0.0088	-9409.61
0.9931,0.0069	-9409.32
0.9973,0.0027	-9387.87
0.9898,0.0102	-9405.45
0.9872,0.0128	-9424.22
0.9980,0.0020	-9381.83
0.9931,0.0069	-9409.32
0.9934,0.0066	-9399.28
0.9967,0.0033	-9410.73
0.9907,0.0093	-9423.75
0.9887,0.0113	-9419.43
0.9973,0.0027	-9381.95
0.9942,0.0058	-9388.81
0.9915,0.0085	-9404.77
0.9971,0.0029	-9393.70
0.9891,0.0109	-9410.32
0.9855,0.0145	-9437.42
0.9970,0.0030	-9416.87
0.9942,0.0058	-9399.09
0.9920,0.0080	-9399.80
0.9974,0.0026	-9381.93
0.9888,0.0112	-9414.90
0.9869,0.0131	-9437.27
0.9970,0.0030	-9393.69
0.9930,0.0070	-9419.23
0.9924,0.0076	-9419.12
0.9979,0.0021	-9381.83
0.9883,0.0117	-9450.57
0.9874,0.0126	-9424.16
0.9971,0.0029	-9393.70
0.9931,0.0069	-9394.40
0.9917,0.0083	-9409.50
0.9979,0.0021	-9387.99
0.9875,0.0125	-9411.02
0.9827,0.0173	-9429.99
0.9975,0.0025	-9381.91
0.9942,0.0058	-9404.24
0.9915,0.0085	-9409.53
0.9972,0.0028	-9376.08
0.9868,0.0132	-9411.41
0.9886,0.0114	-9423.92
0.9973,0.0027	-9381.96
0.9944,0.0056	-9399.07
0.9924,0.0076	-9399.63
0.9980,0.0020	-9375.62
0.9848,0.0152	-9408.36
0.9884,0.0116	-9397.31
0.9978,0.0022	-9387.96
0.9931,0.0069	-9434.15
0.9920,0.0080	-9390.14
0.9970,0.0030	-9382.04
0.9880,0.0120	-9428.43
0.9880,0.0120	-9424.02
0.9980,0.0020	-9381.83
0.9919,0.0081	-9423.87
0.9896,0.0104	-9428.33
0.9968,0.0032	-9376.40
0.9883,0.0117	-9450.59
0.9876,0.0124	-9402.24
0.9983,0.0017	-9388.21
0.9931,0.0069	-9414.28
0.9889,0.0111	-9419.38
0.9969,0.0031	-9393.65
0.9897,0.0103	-9400.94
0.9877,0.0123	-9410.93
0.9987,0.0013	-9381.94
0.9928,0.0072	-9399.49
0.9858,0.0142	-9428.89
0.9954,0.0046	-9388.26
0.9906,0.0094	-9391.11
0.9893,0.0107	-9405.70
0.9984,0.0016	-9375.43
0.9930,0.0070	-9419.23
0.9852,0.0148	-9416.46
0.9960,0.0040	-9377.03
0.9918,0.0082	-9423.86
0.9909,0.0091	-9428.44
0.9987,0.0013	-9381.96
0.9908,0.0092	-9437.79
0.9874,0.0126	-9432.89
0.9963,0.0037	-9376.78
0.9929,0.0071	-9399.43
0.9906,0.0094	-9409.76
0.9987,0.0013	-9381.94
0.9920,0.0080	-9438.34
0.9898,0.0102	-9423.76
0.9951,0.0049	-9399.00
0.9914,0.0086	-9404.79
0.9912,0.0088	-9428.50
0.9987,0.0013	-9388.58
0.9927,0.0073	-9389.71
0.9910,0.0090	-9419.06
0.9954,0.0046	-9393.62
0.9930,0.0070	-9389.52
0.9895,0.0105	-9414.69
0.9985,0.0015	-9375.38
0.9899,0.0101	-9400.83
0.9924,0.0076	-9409.38
0.9956,0.0044	-9393.60
0.9920,0.0080	-9399.81
0.9900,0.0100	-9419.16
0.9985,0.0015	-9375.39
0.9921,0.0079	-9385.26
0.9924,0.0076	-9404.50
0.9953,0.0047	-9388.30
0.9920,0.0080	-9404.63
0.9894,0.0106	-9410.21
0.9983,0.0017	-9375.49
0.9917,0.0083	-9409.50
0.9915,0.0085	-9385.74
0.9942,0.0058	-9393.94
0.9929,0.0071	-9414.27
0.9883,0.0117	-9410.66
0.9983,0.0017	-9388.22
0.9915,0.0085	-9419.05
0.9923,0.0077	-9409.39
0.9950,0.0050	-9388.41
0.9942,0.0058	-9399.11
0.9903,0.0097	-9414.49
0.9977,0.0023	-9381.85
0.9907,0.0093	-9419.07
0.9944,0.0056	-9409.44
0.9949,0.0051	-9393.75
0.9934,0.0066	-9424.37
0.9922,0.0078	-9404.55
0.9979,0.0021	-9381.83
0.9909,0.0091	-9447.19
0.9941,0.0059	-9419.61
0.9937,0.0063	-9399.22
0.9925,0.0075	-9409.36
0.9921,0.0079	-9390.08
0.9977,0.0023	-9400.07
0.9877,0.0123	-9402.17
0.9946,0.0054	-9399.04
0.9955,0.0045	-9404.41
0.9914,0.0086	-9414.30
0.9929,0.0071	-9389.56
0.9977,0.0023	-9387.94
0.9884,0.0116	-9415.07
0.9932,0.0068	-9394.35
0.9951,0.0049	-9388.38
0.9929,0.0071	-9399.45
0.9920,0.0080	-9409.43
0.9978,0.0022	-9387.96
0.9902,0.0098	-9423.75
0.9929,0.0071	-9399.45
0.9945,0.0055	-9414.66
0.9935,0.0065	-9384.18
0.9932,0.0068	-9394.38
0.9984,0.0016	-9375.42
0.9921,0.0079	-9394.92
0.9937,0.0063	-9409.33
0.9923,0.0077	-9404.53
0.9932,0.0068	-9409.32
0.9930,0.0070	-9409.32
0.9982,0.0018	-9394.52
0.9911,0.0089	-9400.19
0.9948,0.0052	-9388.50
0.9919,0.0081	-9409.44
0.9945,0.0055	-9388.64
0.9919,0.0081	-9404.64
0.9983,0.0017	-9375.44
0.9931,0.0069	-9414.29
0.9941,0.0059	-9399.11
0.9913,0.0087	-9395.35
0.9947,0.0053	-9388.54
0.9929,0.0071	-9409.33
0.9974,0.0026	-9381.92
0.9933,0.0067	-9414.32
0.9948,0.0052	-9399.02
0.9925,0.0075	-9409.36
0.9945,0.0055	-9399.05
0.9923,0.0077	-9414.25
0.9968,0.0032	-9410.88
0.9927,0.0073	-9389.68
0.9950,0.0050	-9377.87
0.9923,0.0077	-9399.69
0.9956,0.0044	-9404.46
0.9905,0.0095	-9395.84
0.9975,0.0025	-9387.89
0.9923,0.0077	-9409.38
0.9952,0.0048	-9409.67
0.9926,0.0074	-9404.45
0.9956,0.0044	-9393.60
0.9909,0.0091	-9409.70
0.9974,0.0026	-9387.88
0.9930,0.0070	-9394.48
0.9934,0.0066	-9399.28
0.9933,0.0067	-9404.32
0.9958,0.0042	-9382.64
0.9905,0.0095	-9419.10
0.9977,0.0023	-9375.78
0.9924,0.0076	-9414.25
0.9925,0.0075	-9399.59
0.9931,0.0069	-9409.32
0.9952,0.0048	-9383.02
0.9885,0.0115	-9410.57
0.9969,0.0031	-9399.42
0.9922,0.0078	-9399.70
0.9934,0.0066	-9399.30
0.9938,0.0062	-9419.48
0.9952,0.0048	-9388.32
0.9811,0.0189	-9470.20
0.9977,0.0023	-9393.98
0.9920,0.0080	-9399.78
0.9932,0.0068	-9414.30
0.9934,0.0066	-9409.32
0.9944,0.0056	-9388.70
0.9845,0.0155	-9421.01
0.9971,0.0029	-9387.86
0.9935,0.0065	-9394.25
0.9931,0.0069	-9404.34
0.9933,0.0067	-9399.33
0.9931,0.0069	-9414.29
0.9824,0.0176	-9438.16
0.9967,0.0033	-9376.48
0.9936,0.0064	-9399.24
0.9942,0.0058	-9404.24
0.9932,0.0068	-9399.35
0.9920,0.0080	-9409.43
0.9822,0.0178	-9438.23
0.9974,0.0026	-9387.88
0.9937,0.0063	-9409.33
0.9938,0.0062	-9439.78
0.9932,0.0068	-9399.36
0.9929,0.0071	-9424.16
0.9842,0.0158	-9429.40
0.9969,0.0031	-9387.87
0.9936,0.0064	-9399.22
0.9949,0.0051	-9420.08
0.9938,0.0062	-9389.03
0.9934,0.0066	-9409.32
0.9846,0.0154	-9433.42
0.9973,0.0027	-9381.96
0.9928,0.0072	-9399.48
0.9929,0.0071	-9404.39
0.9934,0.0066	-9404.31
0.9909,0.0091	-9409.68
0.9860,0.0140	-9433.10
0.9972,0.0028	-9376.14
0.9922,0.0078	-9404.56
0.9920,0.0080	-9399.78
0.9923,0.0077	-9419.10
0.9926,0.0074	-9394.63
0.9872,0.0128	-9450.30
0.9973,0.0027	-9381.94
0.9910,0.0090	-9395.55
0.9927,0.0073	-9394.60
0.9924,0.0076	-9404.50
0.9932,0.0068	-9394.37
0.9860,0.0140	-9428.83
0.9970,0.0030	-9387.86
0.9911,0.0089	-9423.77
0.9936,0.0064	-9394.17
0.9916,0.0084	-9399.95
0.9937,0.0063	-9389.11
0.9879,0.0121	-9402.06
0.9974,0.0026	-9387.87
0.9909,0.0091	-9395.63
0.9948,0.0052	-9388.52
0.9930,0.0070	-9439.06
0.9933,0.0067	-9384.33
0.9888,0.0112	-9432.84
0.9973,0.0027	-9381.94
0.9907,0.0093	-9405.07
0.9951,0.0049	-9409.61
0.9918,0.0082	-9404.69
0.9901,0.0099	-9414.54
0.9909,0.0091	-9437.82
0.9974,0.0026	-9375.95
0.9934,0.0066	-9409.32
0.9953,0.0047	-9399.00
0.9928,0.0072	-9424.10
0.9894,0.0106	-9401.12
0.9905,0.0095	-9428.39
0.9977,0.0023	-9393.98
0.9919,0.0081	-9404.64
0.9973,0.0027	-9387.87
0.9921,0.0079	-9409.42
0.9899,0.0101	-9409.99
0.9891,0.0109	-9405.81
0.9975,0.0025	-9387.89
0.9920,0.0080	-9428.72
0.9966,0.0034	-9387.90
0.9918,0.0082	-9399.88
0.9899,0.0101	-9410.01
0.9884,0.0116	-9410.61
0.9977,0.0023	-9381.85
0.9924,0.0076	-9409.37
0.9964,0.0036	-9387.94
0.9911,0.0089	-9404.91
0.9890,0.0110	-9423.84
0.9908,0.0092	-9409.72
0.9979,0.0021	-9388.01
0.9949,0.0051	-9409.56
0.9969,0.0031	-9382.08
0.9911,0.0089	-9423.77
0.9889,0.0111	-9437.33
0.9907,0.0093	-9405.08
0.9976,0.0024	-9381.88
0.9952,0.0048	-9383.02
0.9970,0.0030	-9382.06
0.9919,0.0081	-9395.03
0.9889,0.0111	-9441.82
0.9928,0.0072	-9443.78
0.9974,0.0026	-9387.88
0.9962,0.0038	-9382.41
0.9961,0.0039	-9393.56
0.9912,0.0088	-9400.17
0.9899,0.0101	-9419.17
0.9933,0.0067	-9414.32
0.9976,0.0024	-9387.92
0.9960,0.0040	-9393.56
0.9961,0.0039	-9393.56
0.9905,0.0095	-9409.80
0.9882,0.0118	-9415.14
0.9930,0.0070	-9419.24
0.9975,0.0025	-9393.86
0.9966,0.0034	-9387.90
0.9958,0.0042	-9388.09
0.9911,0.0089	-9419.06
0.9871,0.0129	-9428.58
0.9941,0.0059	-9399.12
0.9975,0.0025	-9399.87
0.9967,0.0033	-9405.04
0.9964,0.0036	-9393.57
0.9906,0.0094	-9414.42
0.9891,0.0109	-9428.34
0.9935,0.0065	-9399.26
0.9975,0.0025	-9375.89
0.9975,0.0025	-9381.91
0.9960,0.0040	-9388.03
0.9915,0.0085	-9414.30
0.9900,0.0100	-9400.76
0.9938,0.0062	-9414.43
0.9970,0.0030	-9387.86
0.9969,0.0031	-9387.87
0.9959,0.0041	-9399.05
0.9929,0.0071	-9409.33
0.9918,0.0082	-9399.87
0.9941,0.0059	-9388.87
0.9964,0.0036	-9382.33
0.9969,0.0031	-9376.33
0.9957,0.0043	-9377.28
0.9929,0.0071	-9419.20
0.9940,0.0060	-9414.48
0.9943,0.0057	-9393.93
0.9961,0.0039	-9382.47
0.9969,0.0031	-9393.65
0.9962,0.0038	-9382.43
0.9939,0.0061	-9404.25
0.9937,0.0063	-9384.06
0.9940,0.0060	-9394.02
0.9958,0.0042	-9388.10
0.9967,0.0033	-9393.60
0.9961,0.0039	-9415.76
0.9940,0.0060	-9394.05
0.9930,0.0070	-9399.41
0.9935,0.0065	-9384.19
0.9955,0.0045	-9393.61
0.9968,0.0032	-9399.37
0.9968,0.0032	-9387.88
0.9923,0.0077	-9399.67
0.9928,0.0072	-9399.49
0.9952,0.0048	-9399.00
0.9959,0.0041	-9393.56
0.9970,0.0030	-9393.68
0.9970,0.0030	-9387.86
0.9900,0.0100	-9419.16
0.9939,0.0061	-9409.34
0.9954,0.0046	-9399.01
0.9954,0.0046	-9382.86
0.9973,0.0027	-9387.87
0.9957,0.0043	-9409.90
0.9904,0.0096	-9428.37
0.9934,0.0066	-9409.32
0.9943,0.0057	-9404.24
0.9956,0.0044	-9388.19
0.9967,0.0033	-9382.18
0.9953,0.0047	-9393.65
0.9873,0.0127	-9415.46
0.9912,0.0088	-9423.77
0.9952,0.0048	-9393.67
0.9964,0.0036	-9382.32
0.9965,0.0035	-9382.29
0.9947,0.0053	-9399.03
0.9873,0.0127	-9424.18
0.9893,0.0107	-9423.81
0.9953,0.0047	-9399.00
0.9955,0.0045	-9382.79
0.9961,0.0039	-9376.91
0.9946,0.0054	-9393.83
0.9889,0.0111	-9414.88
0.9894,0.0106	-9423.80
0.9953,0.0047	-9404.36
0.9947,0.0053	-9399.03
0.9972,0.0028	-9382.00
0.9958,0.0042	-9382.63
0.9879,0.0121	-9415.23
0.9907,0.0093	-9400.42
0.9960,0.0040	-9399.08
0.9950,0.0050	-9404.30
0.9971,0.0029	-9382.01
0.9954,0.0046	-9393.62
0.9887,0.0113	-9432.83
0.9908,0.0092	-9409.71
0.9968,0.0032	-9399.38
0.9952,0.0048	-9409.67
0.9971,0.0029	-9382.01
0.9952,0.0048	-9404.34
0.9900,0.0100	-9419.16
0.9927,0.0073	-9409.34
0.9965,0.0035	-9387.93
0.9944,0.0056	-9414.60
0.9971,0.0029	-9387.86
0.9942,0.0058	-9399.09
0.9874,0.0126	-9411.09
0.9929,0.0071	-9404.38
0.9966,0.0034	-9382.21
0.9951,0.0049	-9404.31
0.9977,0.0023	-9381.86
0.9942,0.0058	-9399.10
0.9890,0.0110	-9419.35
0.9939,0.0061	-9404.25
0.9961,0.0039	-9382.47
0.9949,0.0051	-9393.73
0.9975,0.0025	-9393.87
0.9954,0.0046	-9399.01
0.9880,0.0120	-9441.66
0.9944,0.0056	-9399.06
0.9964,0.0036	-9382.31
0.9951,0.0049	-9404.32
0.9975,0.0025	-9381.89
0.9950,0.0050	-9393.70
0.9903,0.0097	-9396.01
0.9948,0.0052	-9393.76
0.9961,0.0039	-9388.02
0.9953,0.0047	-9399.00
0.9977,0.0023	-9375.77
0.9949,0.0051	-9393.75
0.9905,0.0095	-9409.80
0.9960,0.0040	-9376.99
0.9944,0.0056	-9399.07
0.9944,0.0056	-9388.69
0.9971,0.0029	-9393.70
0.9943,0.0057	-9383.59
0.9888,0.0112	-9423.88
0.9962,0.0038	-9393.56
0.9949,0.0051	-9388.46
0.9935,0.0065	-9394.22
0.9969,0.0031	-9382.10
0.9927,0.0073	-9414.26
0.9914,0.0086	-9400.06
0.9965,0.0035	-9387.92
0.9953,0.0047	-9399.00
0.9923,0.0077	-9409.38
0.9965,0.0035	-9387.92
0.9928,0.0072	-9399.47
0.9895,0.0105	-9419.24
0.9973,0.0027	-9381.96
0.9950,0.0050	-9399.01
0.9898,0.0102	-9400.88
0.9967,0.0033	-9399.29
0.9937,0.0063	-9394.13
0.9905,0.0095	-9419.09
0.9971,0.0029	-9399.57
0.9947,0.0053	-9378.05
0.9896,0.0104	-9414.68
0.9973,0.0027	-9387.87
0.9933,0.0067	-9414.32
0.9900,0.0100	-9428.35
0.9977,0.0023	-9381.86
0.9950,0.0050	-9393.72
0.9893,0.0107	-9423.81
0.9976,0.0024	-9375.85
0.9931,0.0069	-9394.39
0.9905,0.0095	-9409.81
0.9979,0.0021	-9381.83
0.9939,0.0061	-9409.35
0.9902,0.0098	-9386.82
0.9971,0.0029	-9393.72
0.9926,0.0074	-9409.35
0.9917,0.0083	-9414.27
0.9979,0.0021	-9375.68
0.9938,0.0062	-9399.19
0.9899,0.0101	-9432.92
0.9974,0.0026	-9387.88
0.9930,0.0070	-9404.37
0.9920,0.0080	-9394.96
0.9977,0.0023	-9387.94
0.9932,0.0068	-9414.30
0.9901,0.0099	-9409.93
0.9968,0.0032	-9382.12
0.9926,0.0074	-9399.56
0.9922,0.0078	-9399.69
0.9970,0.0030	-9405.32
0.9923,0.0077	-9394.82
0.9895,0.0105	-9410.14
0.9957,0.0043	-9382.72
0.9914,0.0086	-9395.34
0.9949,0.0051	-9393.73
0.9971,0.0029	-9393.69
0.9931,0.0069	-9389.45
0.9901,0.0099	-9428.35
0.9956,0.0044	-9388.18
0.9907,0.0093	-9419.08
0.9945,0.0055	-9378.22
0.9967,0.0033	-9382.17
0.9954,0.0046	-9382.87
0.9909,0.0091	-9442.53
0.9962,0.0038	-9388.00
0.9920,0.0080	-9390.18
0.9948,0.0052	-9404.28
0.9971,0.0029	-9382.04
0.9948,0.0052	-9388.52
0.9880,0.0120	-9428.43
0.9959,0.0041	-9399.06
0.9923,0.0077	-9404.52
0.9947,0.0053	-9409.51
0.9975,0.0025	-9387.90
0.9952,0.0048	-9399.00
0.9875,0.0125	-9432.88
0.9959,0.0041	-9410.02
0.9916,0.0084	-9419.05
0.9943,0.0057	-9399.08
0.9977,0.0023	-9381.86
0.9936,0.0064	-9389.13
0.9912,0.0088	-9414.33
0.9966,0.0034	-9387.90
0.9930,0.0070	-9409.33
0.9937,0.0063	-9409.33
0.9980,0.0020	-9381.83
0.9946,0.0054	-9399.04
0.9891,0.0109	-9405.80
0.9967,0.0033	-9376.47
0.9918,0.0082	-9419.06
0.9941,0.0059	-9399.12
0.9980,0.0020	-9381.82
0.9949,0.0051	-9399.01
0.9881,0.0119	-9406.31
0.9969,0.0031	-9393.64
0.9916,0.0084	-9414.28
0.9936,0.0064	-9429.52
0.9987,0.0013	-9381.96
0.9951,0.0049	-9404.32
0.9863,0.0137	-9437.31
0.9978,0.0022	-9400.18
0.9937,0.0063	-9399.21
0.9934,0.0066	-9399.30
0.9988,0.0012	-9388.71
0.9951,0.0049	-9388.40
0.9885,0.0115	-9428.38
0.9970,0.0030	-9387.86
0.9948,0.0052	-9399.02
0.9945,0.0055	-9409.44
0.9989,0.0011	-9382.10
0.9938,0.0062	-9419.48
0.9866,0.0134	-9441.59
0.9963,0.0037	-9376.77
0.9945,0.0055	-9388.68
0.9921,0.0079	-9409.42
0.9990,0.0010	-9382.19
0.9944,0.0056	-9399.07
0.9887,0.0113	-9437.31
0.9967,0.0033	-9387.89
0.9940,0.0060	-9388.95
0.9913,0.0087	-9404.86
0.9992,0.0008	-9375.28
0.9950,0.0050	-9404.30
0.9877,0.0123	-9424.08
0.9969,0.0031	-9382.10
0.9939,0.0061	-9388.96
0.9897,0.0103	-9405.51
0.9989,0.0011	-9375.27
0.9959,0.0041	-9382.61
0.9888,0.0112	-9423.88
0.9969,0.0031	-9382.09
0.9916,0.0084	-9433.35
0.9869,0.0131	-9419.98
0.9988,0.0012	-9382.03
0.9972,0.0028	-9381.99
0.9908,0.0092	-9395.65
0.9975,0.0025	-9411.89
0.9928,0.0072	-9429.02
0.9882,0.0118	-9428.42
0.9990,0.0010	-9382.18
0.9970,0.0030	-9382.05
0.9911,0.0089	-9400.21
0.9982,0.0018	-9400.70
0.9930,0.0070	-9404.37
0.9880,0.0120	-9437.26
0.9991,0.0009	-9382.30
0.9975,0.0025	-9399.86
0.9916,0.0084	-9404.73
0.9983,0.0017	-9381.84
0.9936,0.0064	-9409.32
0.9869,0.0131	-9424.30
0.9990,0.0010	-9382.17
0.9980,0.0020	-9394.22
0.9910,0.0090	-9419.06
0.9979,0.0021	-9387.98
0.9930,0.0070	-9394.47
0.9888,0.0112	-9419.39
0.9990,0.0010	-9382.22
0.9984,0.0016	-9375.41
0.9915,0.0085	-9433.33
0.9984,0.0016	-9375.43
0.9934,0.0066	-9404.31
0.9872,0.0128	-9428.56
0.9990,0.0010	-9375.26
0.9981,0.0019	-9375.55
0.9914,0.0086	-9390.56
0.9984,0.0016	-9381.85
0.9951,0.0049	-9393.70
0.9884,0.0116	-9415.06
0.9991,0.0009	-9375.27
0.9978,0.0022	-9387.95
0.9916,0.0084	-9409.50
0.9982,0.0018	-9388.12
0.9946,0.0054	-9409.46
0.9886,0.0114	-9423.91
0.9991,0.0009	-9375.26
0.9977,0.0023	-9381.85
0.9923,0.0077	-9399.67
0.9972,0.0028	-9405.47
0.9958,0.0042	-9399.05
0.9889,0.0111	-9432.84
0.9991,0.0009	-9389.40
0.9978,0.0022	-9387.96
0.9947,0.0053	-9404.26
0.9979,0.0021	-9394.17
0.9959,0.0041	-9388.06
0.9884,0.0116	-9423.94
0.9988,0.0012	-9375.29
0.9975,0.0025	-9381.90
0.9946,0.0054	-9404.25
0.9976,0.0024	-9381.87
0.9950,0.0050	-9409.58
0.9887,0.0113	-9419.42
0.9985,0.0015	-9381.89
0.9973,0.0027	-9399.67
0.9937,0.0063	-9384.01
0.9979,0.0021	-9400.30
0.9953,0.0047	-9377.59
0.9902,0.0098	-9409.90
0.9986,0.0014	-9375.33
0.9964,0.0036	-9399.19
0.9963,0.0037	-9387.97
0.9976,0.0024	-9387.91
0.9961,0.0039	-9399.10
0.9914,0.0086	-9414.30
0.9989,0.0011	-9382.11
0.9963,0.0037	-9393.56
0.9962,0.0038	-9399.14
0.9977,0.0023	-9375.77
0.9959,0.0041	-9399.06
0.9878,0.0122	-9393.28
0.9990,0.0010	-9375.27
0.9965,0.0035	-9393.57
0.9963,0.0037	-9376.76
0.9977,0.0023	-9381.86
0.9968,0.0032	-9382.14
0.9855,0.0145	-9416.31
0.9988,0.0012	-9375.28
0.9965,0.0035	-9393.57
0.9966,0.0034	-9387.91
0.9983,0.0017	-9381.84
0.9970,0.0030	-9399.46
0.9838,0.0162	-9437.76
0.9990,0.0010	-9382.15
0.9967,0.0033	-9382.16
0.9957,0.0043	-9388.15
0.9984,0.0016	-9375.43
0.9974,0.0026	-9387.87
0.9818,0.0182	-9442.35
0.9990,0.0010	-9395.96
0.9972,0.0028	-9381.99
0.9961,0.0039	-9382.45
0.9988,0.0012	-9381.99
0.9974,0.0026	-9387.88
0.9870,0.0130	-9419.94
0.9992,0.0008	-9375.27
0.9968,0.0032	-9387.87
0.9967,0.0033	-9393.60
0.9981,0.0019	-9388.11
0.9974,0.0026	-9387.88
0.9885,0.0115	-9428.38
0.9991,0.0009	-9382.30
0.9974,0.0026	-9387.87
0.9971,0.0029	-9387.86
0.9983,0.0017	-9394.57
0.9973,0.0027	-9381.96
0.9920,0.0080	-9423.90
0.9990,0.0010	-9382.14
0.9969,0.0031	-9399.39
0.9972,0.0028	-9393.72
0.9981,0.0019	-9375.55
0.9978,0.0022	-9387.96
0.9918,0.0082	-9404.67
0.9991,0.0009	-9382.25
0.9963,0.0037	-9382.36
0.9971,0.0029	-9393.69
0.9984,0.0016	-9381.85
0.9978,0.0022	-9381.85
0.9929,0.0071	-9404.39
0.9991,0.0009	-9375.27
0.9956,0.0044	-9377.33
0.9967,0.0033	-9387.89
0.9982,0.0018	-9381.83
0.9973,0.0027	-9387.87
0.9913,0.0087	-9414.32
0.9991,0.0009	-9375.27
0.9951,0.0049	-9409.65
0.9970,0.0030	-9387.87
0.9985,0.0015	-9381.89
0.9969,0.0031	-9382.11
0.9915,0.0085	-9423.81
0.9992,0.0008	-9375.28
0.9957,0.0043	-9382.68
0.9956,0.0044	-9393.59
0.9983,0.0017	-9375.46
0.9964,0.0036	-9387.95
0.9936,0.0064	-9404.28
0.9993,0.0007	-9382.52
0.9956,0.0044	-9399.02
0.9960,0.0040	-9415.62
0.9985,0.0015	-9375.38
0.9960,0.0040	-9399.09
0.9930,0.0070	-9414.28
0.9992,0.0008	-9375.28
0.9959,0.0041	-9399.05
0.9969,0.0031	-9382.11
0.9983,0.0017	-9388.20
0.9957,0.0043	-9382.68
0.9948,0.0052	-9409.54
0.9993,0.0007	-9375.30
0.9957,0.0043	-9399.03
0.9968,0.0032	-9387.88
0.9977,0.0023	-9381.86
0.9962,0.0038	-9399.12
0.9945,0.0055	-9378.27
0.9989,0.0011	-9382.10
0.9960,0.0040	-9382.52
0.9962,0.0038	-9388.00
0.9979,0.0021	-9381.84
0.9958,0.0042	-9409.97
0.9949,0.0051	-9404.29
0.9986,0.0014	-9381.92
0.9955,0.0045	-9393.62
0.9954,0.0046	-9404.39
0.9980,0.0020	-9388.05
0.9956,0.0044	-9399.02
0.9949,0.0051	-9388.46
0.9985,0.0015	-9375.40
0.9949,0.0051	-9388.47
0.9949,0.0051	-9393.75
0.9979,0.0021	-9381.84
0.9963,0.0037	-9404.77
0.9926,0.0074	-9404.46
0.9986,0.0014	-9375.35
0.9936,0.0064	-9414.37
0.9951,0.0049	-9414.95
0.9984,0.0016	-9394.67
0.9968,0.0032	-9382.14
0.9922,0.0078	-9419.10
0.9988,0.0012	-9375.28
0.9929,0.0071	-9399.46
0.9955,0.0045	-9382.81
0.9983,0.0017	-9375.46
0.9963,0.0037	-9393.56
0.9920,0.0080	-9394.99
0.9987,0.0013	-9388.56
0.9935,0.0065	-9419.39
0.9960,0.0040	-9382.53
0.9980,0.0020	-9388.02
0.9967,0.0033	-9387.89
0.9933,0.0067	-9409.32
0.9986,0.0014	-9388.51
0.9937,0.0063	-9399.21
0.9966,0.0034	-9387.90
0.9982,0.0018	-9375.50
0.9959,0.0041	-9399.07
0.9926,0.0074	-9404.46
0.9988,0.0012	-9382.03
0.9944,0.0056	-9388.69
0.9967,0.0033	-9399.32
0.9984,0.0016	-9375.41
0.9965,0.0035	-9393.58
0.9931,0.0069	-9384.46
0.9988,0.0012	-9375.28
0.9952,0.0048	-9399.00
0.9971,0.0029	-9376.19
0.9985,0.0015	-9394.85
0.9962,0.0038	-9404.72
0.9937,0.0063	-9409.33
0.9987,0.0013	-9375.32
0.9951,0.0049	-9409.63
0.9974,0.0026	-9375.98
0.9981,0.0019	-9375.58
0.9957,0.0043	-9382.67
0.9932,0.0068	-9404.33
0.9985,0.0015	-9388.36
0.9961,0.0039	-9388.01
0.9966,0.0034	-9399.28
0.9977,0.0023	-9381.86
0.9965,0.0035	-9387.92
0.9956,0.0044	-9382.73
0.9979,0.0021	-9387.98
0.9967,0.0033	-9382.17
0.9951,0.0049	-9388.39
0.9982,0.0018	-9375.52
0.9963,0.0037	-9393.56
0.9959,0.0041	-9393.57
0.9974,0.0026	-9393.84
0.9976,0.0024	-9387.90
0.9956,0.0044	-9393.59
0.9978,0.0022	-9381.84
0.9963,0.0037	-9399.15
0.9949,0.0051	-9399.01
0.9973,0.0027	-9381.95
0.9968,0.0032	-9399.36
0.9948,0.0052	-9388.53
0.9985,0.0015	-9381.89
0.9964,0.0036	-9399.19
0.9961,0.0039	-9388.02
0.9973,0.0027	-9387.87
0.9969,0.0031	-9387.87
0.9943,0.0057	-9399.08
0.9987,0.0013	-9375.31
0.9971,0.0029	-9399.56
0.9961,0.0039	-9388.01
0.9972,0.0028	-9381.99
0.9973,0.0027	-9429.36
0.9945,0.0055	-9409.44
0.9990,0.0010	-9389.00
0.9972,0.0028	-9376.09
0.9960,0.0040	-9388.04
0.9976,0.0024	-9387.91
0.9977,0.0023	-9381.86
0.9945,0.0055	-9399.06
0.9990,0.0010	-9375.26
0.9968,0.0032	-9382.14
0.9966,0.0034	-9393.58
0.9974,0.0026	-9387.88
0.9979,0.0021	-9388.01
0.9946,0.0054	-9378.18
0.9989,0.0011	-9375.27
0.9960,0.0040	-9399.07
0.9966,0.0034	-9376.55
0.9970,0.0030	-9393.67
0.9977,0.0023	-9387.92
0.9943,0.0057	-9409.41
0.9989,0.0011	-9382.07
0.9951,0.0049	-9388.35
0.9962,0.0038	-9382.44
0.9966,0.0034	-9399.27
0.9976,0.0024	-9393.92
0.9949,0.0051	-9404.28
0.9991,0.0009	-9375.27
0.9952,0.0048	-9383.03
0.9957,0.0043	-9393.59
0.9963,0.0037	-9415.89
0.9979,0.0021	-9375.67
0.9951,0.0049	-9393.69
0.9991,0.0009	-9375.27
0.9950,0.0050	-9399.01
0.9952,0.0048	-9393.67
0.9972,0.0028	-9393.73
0.9980,0.0020	-9381.83
0.9932,0.0068	-9384.37
0.9990,0.0010	-9375.26
0.9946,0.0054	-9399.04
0.9935,0.0065	-9409.32
0.9978,0.0022	-9375.72
0.9977,0.0023	-9394.01
0.9945,0.0055	-9430.26
0.9992,0.0008	-9375.27
0.9934,0.0066	-9389.23
0.9926,0.0074	-9394.67
0.9980,0.0020	-9388.03
0.9979,0.0021	-9381.84
0.9947,0.0053	-9404.27
0.9992,0.0008	-9375.28
0.9931,0.0069	-9434.18
0.9923,0.0077	-9409.39
0.9981,0.0019	-9381.82
0.9980,0.0020	-9388.03
0.9954,0.0046	-9399.01
0.9992,0.0008	-9382.46
0.9931,0.0069	-9414.29
0.9920,0.0080	-9399.77
0.9983,0.0017	-9401.03
0.9977,0.0023	-9375.76
0.9951,0.0049	-9393.69
0.9991,0.0009	-9375.27
0.9931,0.0069	-9399.37
0.9940,0.0060	-9399.15
0.9982,0.0018	-9381.83
0.9974,0.0026	-9381.93
0.9947,0.0053	-9393.80
0.9990,0.0010	-9375.27
0.9927,0.0073	-9399.51
0.9945,0.0055	-9414.66
0.9983,0.0017	-9388.19
0.9973,0.0027	-9376.02
0.9951,0.0049	-9399.00
0.9988,0.0012	-9375.30
0.9925,0.0075	-9409.36
0.9955,0.0045	-9393.61
0.9987,0.0013	-9381.95
0.9974,0.0026	-9381.93
0.9950,0.0050	-9388.42
0.9987,0.0013	-9381.95
0.9931,0.0069	-9404.35
0.9942,0.0058	-9404.24
0.9987,0.0013	-9381.96
0.9975,0.0025	-9375.90
0.9942,0.0058	-9404.24
0.9983,0.0017	-9381.84
0.9939,0.0061	-9388.98
0.9926,0.0074	-9404.46
0.9990,0.0010	-9375.27
0.9974,0.0026	-9376.01
0.9922,0.0078	-9457.82
0.9982,0.0018	-9381.83
0.9948,0.0052	-9393.77
0.9935,0.0065	-9409.32
0.9993,0.0007	-9375.30
0.9972,0.0028	-9393.72
0.9917,0.0083	-9414.27
0.9983,0.0017	-9381.84
0.9951,0.0049	-9414.95
0.9943,0.0057	-9388.74
0.9992,0.0008	-9382.44
0.9970,0.0030	-9382.07
0.9930,0.0070	-9429.13
0.9978,0.0022	-9381.85
0.9957,0.0043	-9399.03
0.9926,0.0074	-9424.06
0.9992,0.0008	-9389.41
0.9966,0.0034	-9376.52
0.9936,0.0064	-9409.33
0.9978,0.0022	-9381.84
0.9964,0.0036	-9399.18
0.9897,0.0103	-9419.20
0.9991,0.0009	-9382.26
0.9974,0.0026	-9387.88
0.9941,0.0059	-9414.51
0.9976,0.0024	-9387.90
0.9959,0.0041	-9415.58
0.9892,0.0108	-9410.26
0.9991,0.0009	-9375.27
0.9971,0.0029	-9382.01
0.9939,0.0061	-9404.25
0.9973,0.0027	-9393.80
0.9959,0.0041	-9388.06
0.9918,0.0082	-9399.88
0.9993,0.0007	-9375.31
0.9969,0.0031	-9376.35
0.9942,0.0058	-9393.95
0.9973,0.0027	-9376.03
0.9962,0.0038	-9387.98
0.9924,0.0076	-9419.12
0.9993,0.0007	-9375.32
0.9968,0.0032	-9387.88
0.9941,0.0059	-9394.01
0.9969,0.0031	-9376.29
0.9962,0.0038	-9382.41
0.9934,0.0066	-9424.36
0.9994,0.0006	-9375.36
0.9970,0.0030	-9393.67
0.9952,0.0048	-9404.34
0.9978,0.0022	-9375.72
0.9956,0.0044	-9393.60
0.9946,0.0054	-9393.83
0.9994,0.0006	-9375.37
0.9963,0.0037	-9387.96
0.9962,0.0038	-9376.87
0.9984,0.0016	-9381.86
0.9955,0.0045	-9404.41
0.9955,0.0045	-9415.23
0.9994,0.0006	-9382.81
0.9960,0.0040	-9382.52
0.9958,0.0042	-9388.10
0.9983,0.0017	-9394.55
0.9957,0.0043	-9382.72
0.9952,0.0048	-9388.32
0.9994,0.0006	-9375.39
0.9970,0.0030	-9382.05
0.9954,0.0046	-9382.85
0.9982,0.0018	-9381.83
0.9950,0.0050	-9388.43
0.9948,0.0052	-9393.76
0.9994,0.0006	-9375.38
0.9967,0.0033	-9405.02
0.9957,0.0043	-9399.03
0.9982,0.0018	-9400.81
0.9944,0.0056	-9404.25
0.9959,0.0041	-9382.58
0.9995,0.0005	-9375.47
0.9957,0.0043	-9399.03
0.9958,0.0042	-9410.01
0.9980,0.0020	-9388.04
0.9930,0.0070	-9389.50
0.9964,0.0036	-9382.32
0.9995,0.0005	-9375.41
0.9957,0.0043	-9382.71
0.9958,0.0042	-9426.36
0.9976,0.0024	-9387.92
0.9926,0.0074	-9409.35
0.9958,0.0042	-9415.44
0.9995,0.0005	-9383.10
0.9956,0.0044	-9377.34
0.9949,0.0051	-9388.46
0.9980,0.0020	-9375.64
0.9947,0.0053	-9419.99
0.9954,0.0046	-9393.63
0.9994,0.0006	-9375.38
0.9951,0.0049	-9393.68
0.9966,0.0034	-9393.58
0.9983,0.0017	-9381.84
0.9949,0.0051	-9404.29
0.9952,0.0048	-9404.33
0.9995,0.0005	-9375.48
0.9957,0.0043	-9399.03
0.9967,0.0033	-9387.89
0.9985,0.0015	-9388.34
0.9961,0.0039	-9388.02
0.9939,0.0061	-9399.15
0.9995,0.0005	-9375.49
0.9968,0.0032	-9387.88
0.9973,0.0027	-9393.78
0.9985,0.0015	-9388.40
0.9961,0.0039	-9415.75
0.9939,0.0061	-9394.08
0.9996,0.0004	-9375.54
0.9963,0.0037	-9393.56
0.9976,0.0024	-9381.87
0.9980,0.0020	-9375.61
0.9963,0.0037	-9416.00
0.9917,0.0083	-9404.70
0.9996,0.0004	-9375.53
0.9951,0.0049	-9399.00
0.9980,0.0020	-9394.24
0.9980,0.0020	-9388.03
0.9971,0.0029	-9382.03
0.9904,0.0096	-9405.20
0.9995,0.0005	-9390.85
0.9958,0.0042	-9382.62
0.9983,0.0017	-9375.46
0.9980,0.0020	-9375.61
0.9964,0.0036	-9382.32
0.9908,0.0092	-9409.71
0.9995,0.0005	-9375.46
0.9956,0.0044	-9399.02
0.9980,0.0020	-9375.62
0.9978,0.0022	-9387.95
0.9963,0.0037	-9387.97
0.9897,0.0103	-9428.34
0.9995,0.0005	-9375.48
0.9964,0.0036	-9376.69
0.9981,0.0019	-9375.58
0.9973,0.0027	-9381.96
0.9962,0.0038	-9382.44
0.9893,0.0107	-9428.34
0.9995,0.0005	-9382.92
0.9962,0.0038	-9399.13
0.9978,0.0022	-9381.84
0.9978,0.0022	-9381.85
0.9964,0.0036	-9387.94
0.9897,0.0103	-9419.21
0.9994,0.0006	-9382.76
0.9965,0.0035	-9393.58
0.9980,0.0020	-9375.62
0.9977,0.0023	-9381.86
0.9955,0.0045	-9393.62
0.9881,0.0119	-9401.88
0.9994,0.0006	-9375.34
0.9968,0.0032	-9393.62
0.9987,0.0013	-9381.98
0.9973,0.0027	-9387.87
0.9962,0.0038	-9387.99
0.9879,0.0121	-9428.45
0.9994,0.0006	-9375.38
0.9962,0.0038	-9382.40
0.9989,0.0011	-9382.05
0.9972,0.0028	-9387.86
0.9958,0.0042	-9388.11
0.9878,0.0122	-9450.42
0.9994,0.0006	-9375.38
0.9961,0.0039	-9388.00
0.9989,0.0011	-9375.27
0.9967,0.0033	-9393.61
0.9953,0.0047	-9393.65
0.9867,0.0133	-9411.44
0.9995,0.0005	-9382.96
0.9957,0.0043	-9393.58
0.9990,0.0010	-9375.26
0.9966,0.0034	-9399.25
0.9948,0.0052	-9383.24
0.9897,0.0103	-9405.50
0.9995,0.0005	-9382.95
0.9965,0.0035	-9399.23
0.9990,0.0010	-9375.27
0.9961,0.0039	-9399.10
0.9948,0.0052	-9388.53
0.9920,0.0080	-9414.26
0.9995,0.0005	-9375.43
0.9946,0.0054	-9399.04
0.9987,0.0013	-9381.97
0.9958,0.0042	-9388.11
0.9947,0.0053	-9399.03
0.9914,0.0086	-9404.81
0.9995,0.0005	-9375.41
0.9951,0.0049	-9388.40
0.9987,0.0013	-9381.97
0.9958,0.0042	-9382.64
0.9951,0.0049	-9388.37
0.9911,0.0089	-9419.06
0.9994,0.0006	-9375.36
0.9931,0.0069	-9394.43
0.9989,0.0011	-9388.90
0.9965,0.0035	-9387.91
0.9955,0.0045	-9382.80
0.9911,0.0089	-9428.49
0.9995,0.0005	-9375.43
0.9936,0.0064	-9399.25
0.9988,0.0012	-9375.29
0.9947,0.0053	-9399.03
0.9965,0.0035	-9382.29
0.9913,0.0087	-9400.12
0.9995,0.0005	-9375.43
0.9917,0.0083	-9395.11
0.9988,0.0012	-9382.03
0.9944,0.0056	-9399.07
0.9962,0.0038	-9382.40
0.9903,0.0097	-9419.11
0.9995,0.0005	-9375.42
0.9916,0.0084	-9423.82
0.9987,0.0013	-9381.96
0.9948,0.0052	-9399.02
0.9954,0.0046	-9393.63
0.9916,0.0084	-9409.50
0.9995,0.0005	-9375.48
0.9900,0.0100	-9396.18
0.9987,0.0013	-9388.58
0.9950,0.0050	-9404.30
0.9962,0.0038	-9404.72
0.9922,0.0078	-9385.18
0.9995,0.0005	-9375.47
0.9892,0.0108	-9401.25
0.9987,0.0013	-9381.94
0.9949,0.0051	-9409.58
0.9968,0.0032	-9382.15
0.9946,0.0054	-9399.04
0.9996,0.0004	-9383.58
0.9922,0.0078	-9390.01
0.9987,0.0013	-9388.66
0.9935,0.0065	-9409.32
0.9975,0.0025	-9375.92
0.9953,0.0047	-9404.37
0.9996,0.0004	-9383.42
0.9928,0.0072	-9399.49
0.9985,0.0015	-9381.88
0.9942,0.0058	-9404.24
0.9976,0.0024	-9381.88
0.9954,0.0046	-9393.62
0.9996,0.0004	-9383.38
0.9920,0.0080	-9438.33
0.9989,0.0011	-9375.27
0.9945,0.0055	-9383.45
0.9973,0.0027	-9381.96
0.9967,0.0033	-9405.00
0.9996,0.0004	-9375.55
0.9911,0.0089	-9404.90
0.9989,0.0011	-9375.27
0.9951,0.0049	-9388.36
0.9977,0.0023	-9387.94
0.9960,0.0040	-9393.56
0.9997,0.0003	-9375.76
0.9907,0.0093	-9414.41
0.9990,0.0010	-9382.14
0.9931,0.0069	-9384.45
0.9976,0.0024	-9387.92
0.9971,0.0029	-9382.01
0.9997,0.0003	-9375.77
0.9898,0.0102	-9423.77
0.9991,0.0009	-9375.26
0.9938,0.0062	-9394.11
0.9978,0.0022	-9381.84
0.9967,0.0033	-9405.00
0.9996,0.0004	-9383.32
0.9875,0.0125	-9432.88
0.9990,0.0010	-9389.11
0.9933,0.0067	-9409.32
0.9978,0.0022	-9381.84
0.9970,0.0030	-9382.04
0.9996,0.0004	-9375.53
0.9892,0.0108	-9405.77
0.9991,0.0009	-9382.26
0.9942,0.0058	-9388.80
0.9976,0.0024	-9406.02
0.9967,0.0033	-9387.89
0.9996,0.0004	-9375.57
0.9897,0.0103	-9423.77
0.9990,0.0010	-9375.27
0.9942,0.0058	-9388.81
0.9977,0.0023	-9394.02
0.9959,0.0041	-9393.57
0.9996,0.0004	-9375.60
0.9904,0.0096	-9400.57
0.9988,0.0012	-9375.29
0.9929,0.0071	-9394.50
0.9977,0.0023	-9375.80
0.9955,0.0045	-9382.79
0.9996,0.0004	-9383.53
0.9893,0.0107	-9414.75
0.9988,0.0012	-9381.99
0.9923,0.0077	-9414.25
0.9972,0.0028	-9387.86
0.9955,0.0045	-9388.22
0.9997,0.0003	-9375.65
0.9902,0.0098	-9428.36
0.9985,0.0015	-9375.39
0.9914,0.0086	-9423.80
0.9972,0.0028	-9387.86
0.9956,0.0044	-9382.75
0.9996,0.0004	-9375.55
0.9885,0.0115	-9423.92
0.9986,0.0014	-9381.92
0.9906,0.0094	-9419.08
0.9975,0.0025	-9381.91
0.9965,0.0035	-9387.93
0.9995,0.0005	-9375.46
0.9909,0.0091	-9409.68
0.9987,0.0013	-9375.32
0.9914,0.0086	-9409.56
0.9974,0.0026	-9381.92
0.9958,0.0042	-9399.05
0.9996,0.0004	-9375.57
0.9910,0.0090	-9414.36
0.9988,0.0012	-9375.28
0.9917,0.0083	-9409.48
0.9975,0.0025	-9381.91
0.9959,0.0041	-9404.57
0.9995,0.0005	-9375.47
0.9921,0.0079	-9433.60
0.9983,0.0017	-9375.46
0.9919,0.0081	-9390.20
0.9973,0.0027	-9381.96
0.9952,0.0048	-9409.65
0.9995,0.0005	-9383.15
0.9914,0.0086	-9395.34
0.9982,0.0018	-9388.13
0.9905,0.0095	-9414.44
0.9976,0.0024	-9387.91
0.9954,0.0046	-9377.54
0.9996,0.0004	-9383.49
0.9901,0.0099	-9423.75
0.9985,0.0015	-9394.91
0.9899,0.0101	-9423.76
0.9978,0.0022	-9412.52
0.9947,0.0053	-9393.80
0.9997,0.0003	-9375.73
0.9895,0.0105	-9437.43
0.9983,0.0017	-9381.84
0.9912,0.0088	-9409.61
0.9980,0.0020	-9375.62
0.9946,0.0054	-9404.26
0.9997,0.0003	-9375.72
0.9909,0.0091	-9414.37
0.9984,0.0016	-9375.43
0.9914,0.0086	-9423.79
0.9980,0.0020	-9375.60
0.9937,0.0063	-9384.06
0.9997,0.0003	-9375.76
0.9934,0.0066	-9409.32
0.9987,0.0013	-9388.59
0.9911,0.0089	-9414.34
0.9982,0.0018	-9375.50
0.9941,0.0059	-9399.12
0.9997,0.0003	-9375.76
0.9925,0.0075	-9419.14
0.9986,0.0014	-9388.52
0.9911,0.0089	-9400.20
0.9982,0.0018	-9381.83
0.9929,0.0071	-9394.50
0.9998,0.0002	-9375.87
0.9905,0.0095	-9423.74
0.9987,0.0013	-9381.97
0.9938,0.0062	-9399.20
0.9973,0.0027	-9381.95
0.9922,0.0078	-9399.71
0.9998,0.0002	-9375.92
0.9920,0.0080	-9390.13
0.9987,0.0013	-9375.32
0.9962,0.0038	-9387.99
0.9976,0.0024	-9375.86
0.9926,0.0074	-9389.77
0.9998,0.0002	-9375.98
0.9919,0.0081	-9409.45
0.9987,0.0013	-9375.31
0.9961,0.0039	-9399.11
0.9981,0.0019	-9375.55
0.9938,0.0062	-9399.18
0.9998,0.0002	-9384.30
0.9916,0.0084	-9433.37
0.9987,0.0013	-9381.95
0.9961,0.0039	-9393.56
0.9981,0.0019	-9388.10
0.9922,0.0078	-9394.85
0.9998,0.0002	-9375.97
0.9923,0.0077	-9423.97
0.9989,0.0011	-9382.08
0.9957,0.0043	-9404.47
0.9984,0.0016	-9394.70
0.9930,0.0070	-9404.36
0.9997,0.0003	-9375.79
0.9939,0.0061	-9388.97
0.9988,0.0012	-9382.04
0.9963,0.0037	-9399.15
0.9984,0.0016	-9388.31
0.9930,0.0070	-9419.24
0.9996,0.0004	-9375.56
0.9934,0.0066	-9399.29
0.9988,0.0012	-9382.01
0.9967,0.0033	-9387.89
0.9983,0.0017	-9381.84
0.9933,0.0067	-9414.31
0.9996,0.0004	-9383.35
0.9942,0.0058	-9399.10
0.9991,0.0009	-9375.27
0.9960,0.0040	-9377.02
0.9983,0.0017	-9381.83
0.9927,0.0073	-9389.67
0.9996,0.0004	-9383.24
0.9925,0.0075	-9394.69
0.9992,0.0008	-9375.28
0.9958,0.0042	-9399.05
0.9983,0.0017	-9388.19
0.9913,0.0087	-9400.13
0.9996,0.0004	-9375.61
0.9935,0.0065	-9389.22
0.9991,0.0009	-9375.27
0.9955,0.0045	-9393.62
0.9978,0.0022	-9412.52
0.9908,0.0092	-9409.70
0.9997,0.0003	-9375.70
0.9921,0.0079	-9409.41
0.9991,0.0009	-9375.27
0.9941,0.0059	-9404.25
0.9979,0.0021	-9381.83
0.9910,0.0090	-9395.57
0.9997,0.0003	-9375.70
0.9924,0.0076	-9399.63
0.9989,0.0011	-9382.10
0.9916,0.0084	-9409.50
0.9977,0.0023	-9381.85
0.9922,0.0078	-9394.86
0.9997,0.0003	-9383.69
0.9933,0.0067	-9389.32
0.9990,0.0010	-9402.76
0.9929,0.0071	-9399.46
0.9979,0.0021	-9388.01
0.9928,0.0072	-9429.02
0.9996,0.0004	-9375.62
0.9921,0.0079	-9419.08
0.9991,0.0009	-9382.31
0.9924,0.0076	-9419.12
0.9982,0.0018	-9375.52
0.9911,0.0089	-9395.48
0.9996,0.0004	-9375.62
0.9944,0.0056	-9409.42
0.9987,0.0013	-9395.17
0.9934,0.0066	-9399.29
0.9973,0.0027	-9381.95
0.9904,0.0096	-9405.21
0.9997,0.0003	-9375.73
0.9951,0.0049	-9383.06
0.9985,0.0015	-9375.38
0.9942,0.0058	-9424.82
0.9969,0.0031	-9393.65
0.9930,0.0070	-9414.28
0.9997,0.0003	-9383.80
0.9958,0.0042	-9399.05
0.9986,0.0014	-9375.35
0.9943,0.0057	-9399.08
0.9967,0.0033	-9387.89
0.9923,0.0077	-9419.11
0.9996,0.0004	-9383.22
0.9961,0.0039	-9399.10
0.9980,0.0020	-9381.83
0.9942,0.0058	-9419.69
0.9973,0.0027	-9387.87
0.9922,0.0078	-9399.72
0.9995,0.0005	-9375.47
0.9968,0.0032	-9387.88
0.9982,0.0018	-9388.15
0.9939,0.0061	-9404.25
0.9974,0.0026	-9387.87
0.9914,0.0086	-9400.08
0.9996,0.0004	-9375.64
0.9970,0.0030	-9382.08
0.9978,0.0022	-9387.95
0.9956,0.0044	-9388.16
0.9974,0.0026	-9375.99
0.9925,0.0075	-9419.14
0.9997,0.0003	-9383.79
0.9965,0.0035	-9404.88
0.9979,0.0021	-9381.83
0.9952,0.0048	-9399.00
0.9972,0.0028	-9393.74
0.9937,0.0063	-9409.33
0.9997,0.0003	-9375.67
0.9959,0.0041	-9399.07
0.9978,0.0022	-9381.85
0.9952,0.0048	-9382.97
0.9972,0.0028	-9393.73
0.9929,0.0071	-9399.46
0.9997,0.0003	-9383.67
0.9954,0.0046	-9399.01
0.9976,0.0024	-9399.96
0.9953,0.0047	-9399.00
0.9976,0.0024	-9375.85
0.9927,0.0073	-9404.43
0.9997,0.0003	-9375.78
0.9946,0.0054	-9388.58
0.9979,0.0021	-9381.83
0.9948,0.0052	-9388.49
0.9974,0.0026	-9405.67
0.9935,0.0065	-9379.15
0.9996,0.0004	-9375.61
0.9952,0.0048	-9404.33
0.9980,0.0020	-9394.22
0.9956,0.0044	-9420.68
0.9962,0.0038	-9404.72
0.9931,0.0069	-9404.36
0.9997,0.0003	-9383.71
0.9956,0.0044	-9382.75
0.9982,0.0018	-9375.53
0.9949,0.0051	-9425.41
0.9965,0.0035	-9382.28
0.9925,0.0075	-9419.13
0.9997,0.0003	-9375.76
0.9942,0.0058	-9409.38
0.9978,0.0022	-9375.70
0.9959,0.0041	-9399.05
0.9969,0.0031	-9393.64
0.9914,0.0086	-9419.05
0.9996,0.0004	-9375.63
0.9939,0.0061	-9394.07
0.9980,0.0020	-9388.06
0.9956,0.0044	-9393.60
0.9969,0.0031	-9399.44
0.9902,0.0098	-9405.29
0.9996,0.0004	-9375.56
0.9929,0.0071	-9438.94
0.9974,0.0026	-9381.93
0.9958,0.0042	-9393.57
0.9973,0.0027	-9387.87
0.9912,0.0088	-9400.17
0.9995,0.0005	-9375.49
0.9924,0.0076	-9409.38
0.9972,0.0028	-9387.86
0.9960,0.0040	-9388.05
0.9977,0.0023	-9375.79
0.9913,0.0087	-9419.05
0.9995,0.0005	-9382.93
0.9899,0.0101	-9432.92
0.9973,0.0027	-9381.95
0.9961,0.0039	-9382.46
0.9977,0.0023	-9406.22
0.9916,0.0084	-9419.05
0.9995,0.0005	-9375.45
0.9864,0.0136	-9420.15
0.9975,0.0025	-9381.89
0.9966,0.0034	-9404.98
0.9981,0.0019	-9388.09
0.9917,0.0083	-9414.28
0.9995,0.0005	-9375.49
0.9865,0.0135	-9407.26
0.9977,0.0023	-9394.03
0.9971,0.0029	-9387.86
0.9982,0.0018	-9375.49
0.9912,0.0088	-9409.60
0.9995,0.0005	-9375.41
0.9846,0.0154	-9429.26
0.9975,0.0025	-9381.90
0.9971,0.0029	-9393.71
0.9981,0.0019	-9381.83
0.9920,0.0080	-9414.25
0.9994,0.0006	-9375.39
0.9869,0.0131	-9441.59
0.9979,0.0021	-9375.65
0.9978,0.0022	-9381.84
0.9979,0.0021	-9381.83
0.9931,0.0069	-9399.37
0.9994,0.0006	-9375.38
0.9840,0.0160	-9433.61
0.9984,0.0016	-9388.25
0.9971,0.0029	-9393.71
0.9983,0.0017	-9375.46
0.9931,0.0069	-9399.38
0.9994,0.0006	-9375.39
0.9820,0.0180	-9446.29
0.9985,0.0015	-9381.87
0.9970,0.0030	-9376.26
0.9984,0.0016	-9388.28
0.9923,0.0077	-9389.98
0.9994,0.0006	-9382.73
0.9820,0.0180	-9466.28
0.9986,0.0014	-9375.36
0.9969,0.0031	-9393.65
0.9982,0.0018	-9381.83
0.9940,0.0060	-9388.91
0.9993,0.0007	-9382.52
0.9819,0.0181	-9462.28
0.9984,0.0016	-9388.32
0.9970,0.0030	-9393.66
0.9984,0.0016	-9381.86
0.9937,0.0063	-9394.15
0.9993,0.0007	-9375.29
0.9785,0.0215	-9447.32
0.9983,0.0017	-9381.85
0.9964,0.0036	-9393.57
0.9985,0.0015	-9388.37
0.9949,0.0051	-9383.16
0.9991,0.0009	-9375.27
0.9801,0.0199	-9454.58
0.9982,0.0018	-9381.83
0.9963,0.0037	-9393.56
0.9987,0.0013	-9381.95
0.9955,0.0045	-9393.61
0.9992,0.0008	-9382.41
0.9811,0.0189	-9446.50
0.9986,0.0014	-9375.35
0.9958,0.0042	-9388.11
0.9989,0.0011	-9375.27
0.9966,0.0034	-9393.58
0.9993,0.0007	-9375.33
0.9778,0.0222	-9466.50
0.9987,0.0013	-9388.62
0.9956,0.0044	-9393.60
0.9990,0.0010	-9375.26
0.9962,0.0038	-9399.14
0.9992,0.0008	-9382.41
0.9808,0.0192	-9438.71
0.9989,0.0011	-9375.27
0.9958,0.0042	-9377.15
0.9989,0.0011	-9375.27
0.9965,0.0035	-9387.93
0.9990,0.0010	-9389.07
0.9858,0.0142	-9437.37
0.9985,0.0015	-9375.38
0.9957,0.0043	-9377.21
0.9991,0.0009	-9382.27
0.9958,0.0042	-9388.10
0.9990,0.0010	-9375.27
0.9882,0.0118	-9441.69
0.9981,0.0019	-9388.09
0.9951,0.0049	-9409.61
0.9990,0.0010	-9375.26
0.9950,0.0050	-9393.72
