#isoforms=['ENSG00000211445.SE.0.A.up_ENSG00000211445.SE.0.A.SE1_ENSG00000211445.SE.0.A.dn','ENSG00000211445.SE.0.B.up_ENSG00000211445.SE.0.B.dn']	exon_lens=('ENSG00000211445.SE.0.A.up',136),('ENSG00000211445.SE.0.A.SE1',426),('ENSG00000211445.SE.0.A.dn',154),('ENSG00000211445.SE.0.B.up',179),('ENSG00000211445.SE.0.B.dn',154)	iters=5000	burn_in=500	lag=10	percent_accept=95.09	proposal_type=drift	counts=(0,0):123,(0,1):44,(1,0):3,(1,1):142	assigned_counts=0:6,1:183	chrom=chr5	strand=+	mRNA_starts=151020606,151020563	mRNA_ends=151025493,151025493
sampled_psi	log_score
0.0186,0.9814	-1100.62
0.0105,0.9895	-1104.01
0.0112,0.9888	-1103.98
0.0221,0.9779	-1112.80
0.0337,0.9663	-1111.37
0.0341,0.9659	-1114.82
0.0241,0.9759	-1101.93
0.0105,0.9895	-1094.91
0.0128,0.9872	-1108.34
0.0216,0.9784	-1108.93
0.0391,0.9609	-1112.77
0.0325,0.9675	-1107.69
0.0207,0.9793	-1116.52
0.0081,0.9919	-1094.67
0.0123,0.9877	-1095.22
0.0212,0.9788	-1101.21
0.0414,0.9586	-1113.39
0.0305,0.9695	-1110.63
0.0213,0.9787	-1101.24
0.0071,0.9929	-1094.64
0.0101,0.9899	-1094.87
0.0216,0.9784	-1105.11
0.0387,0.9613	-1122.29
0.0325,0.9675	-1111.09
0.0269,0.9731	-1106.28
0.0068,0.9932	-1104.59
0.0128,0.9872	-1108.34
0.0190,0.9810	-1108.60
0.0343,0.9657	-1114.86
0.0288,0.9712	-1117.28
0.0242,0.9758	-1109.36
0.0065,0.9935	-1094.64
0.0118,0.9882	-1103.98
0.0209,0.9791	-1108.84
0.0294,0.9706	-1127.87
0.0324,0.9676	-1114.45
0.0296,0.9704	-1103.46
0.0069,0.9931	-1094.64
0.0125,0.9875	-1103.99
0.0246,0.9754	-1105.73
0.0335,0.9665	-1118.06
0.0281,0.9719	-1106.56
0.0323,0.9677	-1111.04
0.0069,0.9931	-1099.60
0.0148,0.9852	-1108.32
0.0249,0.9751	-1098.48
0.0333,0.9667	-1131.49
0.0252,0.9748	-1120.50
0.0254,0.9746	-1113.21
0.0064,0.9936	-1099.69
0.0156,0.9844	-1112.49
0.0248,0.9752	-1109.46
0.0400,0.9600	-1128.91
0.0232,0.9768	-1112.93
0.0278,0.9722	-1106.48
0.0089,0.9911	-1099.44
0.0215,0.9785	-1112.73
0.0247,0.9753	-1127.82
0.0329,0.9671	-1117.96
0.0201,0.9799	-1112.61
0.0301,0.9699	-1114.01
0.0088,0.9912	-1094.72
0.0211,0.9789	-1112.70
0.0239,0.9761	-1105.60
0.0394,0.9606	-1119.23
0.0186,0.9814	-1108.56
0.0293,0.9707	-1117.37
0.0077,0.9923	-1099.50
0.0215,0.9785	-1105.11
0.0221,0.9779	-1112.80
0.0412,0.9588	-1116.48
0.0182,0.9818	-1104.53
0.0250,0.9750	-1109.50
0.0064,0.9936	-1099.69
0.0263,0.9737	-1109.74
0.0265,0.9735	-1106.17
0.0385,0.9615	-1119.03
0.0218,0.9782	-1112.77
0.0297,0.9703	-1113.94
0.0066,0.9934	-1099.66
0.0266,0.9734	-1106.21
0.0231,0.9769	-1131.63
0.0389,0.9611	-1109.49
0.0248,0.9752	-1113.12
0.0269,0.9731	-1106.28
0.0062,0.9938	-1099.74
0.0209,0.9791	-1124.22
0.0213,0.9787	-1108.89
0.0332,0.9668	-1114.62
0.0287,0.9713	-1120.80
0.0218,0.9782	-1101.36
0.0057,0.9943	-1094.70
0.0177,0.9823	-1104.46
0.0254,0.9746	-1098.64
0.0317,0.9683	-1114.31
0.0265,0.9735	-1109.79
0.0228,0.9772	-1112.87
0.0065,0.9935	-1099.67
0.0200,0.9800	-1108.72
0.0239,0.9761	-1120.43
0.0334,0.9666	-1107.94
0.0251,0.9749	-1116.83
0.0251,0.9749	-1102.21
0.0069,0.9931	-1094.64
0.0217,0.9783	-1120.37
0.0224,0.9776	-1124.16
0.0189,0.9811	-1120.44
0.0233,0.9767	-1097.99
0.0291,0.9709	-1117.34
0.0080,0.9920	-1099.49
0.0232,0.9768	-1109.18
0.0242,0.9758	-1113.04
0.0217,0.9783	-1116.57
0.0223,0.9777	-1109.04
0.0333,0.9667	-1114.64
0.0075,0.9925	-1094.64
0.0219,0.9781	-1108.98
0.0280,0.9720	-1117.18
0.0183,0.9817	-1100.56
0.0173,0.9827	-1120.56
0.0249,0.9751	-1127.81
0.0070,0.9930	-1099.60
0.0185,0.9815	-1116.49
0.0249,0.9751	-1113.15
0.0184,0.9816	-1100.58
0.0191,0.9809	-1104.67
0.0278,0.9722	-1106.48
0.0079,0.9921	-1104.32
0.0187,0.9813	-1104.61
0.0283,0.9717	-1117.22
0.0206,0.9794	-1120.38
0.0142,0.9858	-1099.83
0.0273,0.9727	-1109.94
0.0080,0.9920	-1099.49
0.0207,0.9793	-1112.67
0.0225,0.9775	-1109.07
0.0200,0.9800	-1097.03
0.0145,0.9855	-1099.88
0.0239,0.9761	-1113.01
0.0082,0.9918	-1104.27
0.0179,0.9821	-1104.48
0.0200,0.9800	-1100.93
0.0198,0.9802	-1112.59
0.0134,0.9866	-1104.02
0.0239,0.9761	-1105.60
0.0091,0.9909	-1108.82
0.0176,0.9824	-1116.51
0.0204,0.9796	-1101.02
0.0231,0.9769	-1112.91
0.0148,0.9852	-1104.12
0.0153,0.9847	-1100.01
0.0084,0.9916	-1104.23
0.0152,0.9848	-1104.16
0.0218,0.9782	-1116.57
0.0209,0.9791	-1108.83
0.0151,0.9849	-1099.97
0.0159,0.9841	-1108.36
0.0105,0.9895	-1099.46
0.0126,0.9874	-1095.26
0.0235,0.9765	-1105.50
0.0232,0.9768	-1116.66
0.0107,0.9893	-1099.47
0.0188,0.9812	-1108.58
0.0109,0.9891	-1099.48
0.0141,0.9859	-1104.07
0.0199,0.9801	-1100.91
0.0223,0.9777	-1101.48
0.0114,0.9886	-1099.52
0.0211,0.9789	-1097.36
0.0092,0.9908	-1094.76
0.0138,0.9862	-1099.78
0.0204,0.9796	-1104.89
0.0196,0.9804	-1108.66
0.0134,0.9866	-1104.02
0.0215,0.9785	-1112.74
0.0096,0.9904	-1094.80
0.0186,0.9814	-1112.52
0.0204,0.9796	-1104.89
0.0164,0.9836	-1104.29
0.0123,0.9877	-1099.60
0.0233,0.9767	-1101.73
0.0107,0.9893	-1104.00
0.0182,0.9818	-1108.52
0.0181,0.9819	-1100.53
0.0218,0.9782	-1108.96
0.0105,0.9895	-1108.56
0.0220,0.9780	-1105.19
0.0109,0.9891	-1103.99
0.0181,0.9819	-1096.52
0.0227,0.9773	-1120.39
0.0182,0.9818	-1112.51
0.0092,0.9908	-1108.80
0.0220,0.9780	-1112.79
0.0082,0.9918	-1094.67
0.0186,0.9814	-1104.59
0.0224,0.9776	-1112.83
0.0159,0.9841	-1116.60
0.0092,0.9908	-1094.76
0.0263,0.9737	-1109.75
0.0091,0.9909	-1099.44
0.0188,0.9812	-1100.67
0.0246,0.9754	-1120.46
0.0161,0.9839	-1096.03
0.0087,0.9913	-1099.45
0.0251,0.9749	-1105.85
0.0098,0.9902	-1094.82
0.0159,0.9841	-1100.10
0.0255,0.9745	-1105.96
0.0163,0.9837	-1112.48
0.0071,0.9929	-1094.64
0.0259,0.9741	-1109.67
0.0121,0.9879	-1099.58
0.0145,0.9855	-1104.09
0.0202,0.9798	-1104.87
0.0150,0.9850	-1116.69
0.0088,0.9912	-1099.44
0.0242,0.9758	-1105.65
0.0110,0.9890	-1094.99
0.0111,0.9889	-1103.99
0.0218,0.9782	-1112.77
0.0144,0.9856	-1099.86
0.0100,0.9900	-1099.45
0.0194,0.9806	-1116.49
0.0111,0.9889	-1108.48
0.0097,0.9903	-1099.44
0.0205,0.9795	-1101.05
0.0155,0.9845	-1104.19
0.0105,0.9895	-1104.01
0.0153,0.9847	-1095.84
0.0115,0.9885	-1095.06
0.0089,0.9911	-1094.73
0.0249,0.9751	-1102.14
0.0200,0.9800	-1108.72
0.0126,0.9874	-1099.63
0.0154,0.9846	-1108.34
0.0137,0.9863	-1095.48
0.0087,0.9913	-1104.18
0.0299,0.9701	-1127.89
0.0187,0.9813	-1108.57
0.0090,0.9910	-1104.14
0.0151,0.9849	-1108.33
0.0120,0.9880	-1099.56
0.0111,0.9889	-1108.48
0.0247,0.9753	-1109.44
0.0161,0.9839	-1100.13
0.0098,0.9902	-1094.82
0.0161,0.9839	-1112.48
0.0136,0.9864	-1108.32
0.0121,0.9879	-1103.98
0.0315,0.9685	-1104.01
0.0159,0.9841	-1104.23
0.0117,0.9883	-1095.10
0.0179,0.9821	-1108.50
0.0121,0.9879	-1095.18
0.0104,0.9896	-1099.46
0.0263,0.9737	-1109.75
0.0180,0.9820	-1108.50
0.0127,0.9873	-1103.99
0.0211,0.9789	-1101.18
0.0147,0.9853	-1099.91
0.0121,0.9879	-1112.79
0.0241,0.9759	-1098.24
0.0195,0.9805	-1108.66
0.0152,0.9848	-1104.16
0.0186,0.9814	-1100.62
0.0145,0.9855	-1099.87
0.0120,0.9880	-1103.98
0.0176,0.9824	-1104.45
0.0180,0.9820	-1108.50
0.0141,0.9859	-1095.58
0.0200,0.9800	-1104.83
0.0111,0.9889	-1108.47
0.0146,0.9854	-1108.32
0.0212,0.9788	-1101.21
0.0188,0.9812	-1096.70
0.0125,0.9875	-1099.62
0.0161,0.9839	-1096.02
0.0105,0.9895	-1094.92
0.0191,0.9809	-1104.68
0.0192,0.9808	-1096.81
0.0156,0.9844	-1095.90
0.0102,0.9898	-1104.03
0.0126,0.9874	-1099.63
0.0140,0.9860	-1108.31
0.0231,0.9769	-1101.69
0.0162,0.9838	-1100.16
0.0209,0.9791	-1112.68
0.0119,0.9881	-1099.56
0.0122,0.9878	-1099.59
0.0122,0.9878	-1099.58
0.0195,0.9805	-1104.73
0.0168,0.9832	-1112.48
0.0184,0.9816	-1100.58
0.0116,0.9884	-1095.09
0.0100,0.9900	-1104.04
0.0127,0.9873	-1095.29
0.0164,0.9836	-1096.09
0.0201,0.9799	-1100.95
0.0252,0.9748	-1105.88
0.0115,0.9885	-1108.43
0.0109,0.9891	-1113.00
0.0117,0.9883	-1099.54
0.0123,0.9877	-1103.98
0.0186,0.9814	-1112.52
0.0204,0.9796	-1104.90
0.0137,0.9863	-1099.76
0.0126,0.9874	-1099.63
0.0131,0.9869	-1108.33
0.0160,0.9840	-1120.72
0.0224,0.9776	-1112.83
0.0190,0.9810	-1104.66
0.0122,0.9878	-1099.59
0.0123,0.9877	-1099.60
0.0154,0.9846	-1100.02
0.0151,0.9849	-1099.98
0.0175,0.9825	-1108.46
0.0182,0.9818	-1100.54
0.0130,0.9870	-1108.34
0.0099,0.9901	-1113.25
0.0134,0.9866	-1108.32
0.0135,0.9865	-1104.03
0.0202,0.9798	-1100.98
0.0193,0.9807	-1100.78
0.0134,0.9866	-1095.43
0.0140,0.9860	-1099.80
0.0124,0.9876	-1099.60
0.0102,0.9898	-1099.45
0.0212,0.9788	-1112.71
0.0177,0.9823	-1108.48
0.0142,0.9858	-1104.07
0.0165,0.9835	-1096.12
0.0161,0.9839	-1096.04
0.0122,0.9878	-1099.59
0.0166,0.9834	-1108.39
0.0186,0.9814	-1104.60
0.0150,0.9850	-1108.32
0.0151,0.9849	-1104.15
0.0171,0.9829	-1100.32
0.0098,0.9902	-1099.44
0.0113,0.9887	-1095.05
0.0181,0.9819	-1100.53
0.0123,0.9877	-1108.37
0.0138,0.9862	-1104.04
0.0201,0.9799	-1100.96
0.0081,0.9919	-1094.67
0.0092,0.9908	-1099.44
0.0181,0.9819	-1104.52
0.0129,0.9871	-1104.00
0.0156,0.9844	-1108.34
0.0215,0.9785	-1105.11
0.0095,0.9905	-1099.44
0.0106,0.9894	-1108.54
0.0186,0.9814	-1108.56
0.0120,0.9880	-1103.98
0.0188,0.9812	-1108.57
0.0220,0.9780	-1116.58
0.0114,0.9886	-1112.91
0.0123,0.9877	-1108.37
0.0195,0.9805	-1100.83
0.0140,0.9860	-1099.81
0.0153,0.9847	-1104.16
0.0211,0.9789	-1116.54
0.0090,0.9910	-1108.83
0.0126,0.9874	-1099.63
0.0141,0.9859	-1095.58
0.0129,0.9871	-1108.34
0.0147,0.9853	-1099.90
0.0235,0.9765	-1101.77
0.0104,0.9896	-1108.57
0.0112,0.9888	-1099.50
0.0125,0.9875	-1112.72
0.0114,0.9886	-1099.52
0.0149,0.9851	-1099.93
0.0225,0.9775	-1112.84
0.0090,0.9910	-1108.84
0.0090,0.9910	-1099.44
0.0126,0.9874	-1103.99
0.0141,0.9859	-1112.56
0.0138,0.9862	-1104.04
0.0185,0.9815	-1096.64
0.0084,0.9916	-1094.69
0.0110,0.9890	-1099.49
0.0139,0.9861	-1099.80
0.0151,0.9849	-1095.79
0.0154,0.9846	-1100.03
0.0168,0.9832	-1112.48
0.0079,0.9921	-1099.49
0.0113,0.9887	-1103.98
0.0132,0.9868	-1108.33
0.0147,0.9853	-1120.94
0.0150,0.9850	-1104.14
0.0124,0.9876	-1095.24
0.0087,0.9913	-1094.71
0.0114,0.9886	-1103.98
0.0117,0.9883	-1099.54
0.0136,0.9864	-1104.04
0.0129,0.9871	-1104.00
0.0100,0.9900	-1094.85
0.0087,0.9913	-1099.45
0.0098,0.9902	-1104.06
0.0115,0.9885	-1095.07
0.0102,0.9898	-1094.87
0.0126,0.9874	-1108.35
0.0089,0.9911	-1099.44
0.0087,0.9913	-1094.71
0.0102,0.9898	-1099.45
0.0117,0.9883	-1112.86
0.0106,0.9894	-1113.08
0.0152,0.9848	-1108.33
0.0090,0.9910	-1094.74
0.0066,0.9934	-1094.64
0.0099,0.9901	-1094.84
0.0133,0.9867	-1099.71
0.0080,0.9920	-1099.48
0.0177,0.9823	-1100.44
0.0116,0.9884	-1099.53
0.0067,0.9933	-1094.64
0.0083,0.9917	-1094.68
0.0111,0.9889	-1103.99
0.0103,0.9897	-1099.45
0.0162,0.9838	-1096.06
0.0162,0.9838	-1100.16
0.0077,0.9923	-1094.65
0.0075,0.9925	-1099.53
0.0095,0.9905	-1104.08
0.0131,0.9869	-1112.65
0.0153,0.9847	-1108.33
0.0186,0.9814	-1108.56
0.0081,0.9919	-1099.48
0.0086,0.9914	-1099.45
0.0089,0.9911	-1099.44
0.0159,0.9841	-1108.36
0.0136,0.9864	-1104.03
0.0145,0.9855	-1112.53
0.0084,0.9916	-1094.69
0.0071,0.9929	-1114.39
0.0084,0.9916	-1094.69
0.0199,0.9801	-1116.50
0.0122,0.9878	-1099.59
0.0111,0.9889	-1099.50
0.0070,0.9930	-1099.60
0.0078,0.9922	-1094.65
0.0073,0.9927	-1094.64
0.0143,0.9857	-1104.08
0.0141,0.9859	-1095.57
0.0121,0.9879	-1103.98
0.0062,0.9938	-1094.66
0.0087,0.9913	-1099.45
0.0073,0.9927	-1104.45
0.0156,0.9844	-1112.49
0.0131,0.9869	-1112.66
0.0151,0.9849	-1095.79
0.0058,0.9942	-1099.83
0.0079,0.9921	-1104.32
0.0065,0.9935	-1094.64
0.0174,0.9826	-1100.38
0.0155,0.9845	-1104.18
0.0117,0.9883	-1103.98
0.0055,0.9945	-1094.72
0.0071,0.9929	-1099.57
0.0073,0.9927	-1094.64
0.0147,0.9853	-1104.11
0.0163,0.9837	-1104.28
0.0097,0.9903	-1099.44
0.0054,0.9946	-1094.73
0.0083,0.9917	-1109.02
0.0090,0.9910	-1099.44
0.0112,0.9888	-1099.50
0.0150,0.9850	-1099.95
0.0112,0.9888	-1095.03
0.0060,0.9940	-1099.79
0.0072,0.9928	-1114.35
0.0087,0.9913	-1104.18
0.0119,0.9881	-1099.56
0.0170,0.9830	-1108.42
0.0098,0.9902	-1099.44
0.0055,0.9945	-1105.13
0.0092,0.9908	-1094.76
0.0089,0.9911	-1108.86
0.0130,0.9870	-1095.34
0.0225,0.9775	-1109.08
0.0102,0.9898	-1108.60
0.0063,0.9937	-1094.65
0.0083,0.9917	-1109.02
0.0094,0.9906	-1099.44
0.0162,0.9838	-1116.58
0.0199,0.9801	-1124.29
0.0145,0.9855	-1108.32
0.0055,0.9945	-1094.72
0.0097,0.9903	-1104.07
0.0095,0.9905	-1099.44
0.0150,0.9850	-1104.14
0.0274,0.9726	-1109.97
0.0155,0.9845	-1095.88
0.0052,0.9948	-1100.00
0.0097,0.9903	-1113.31
0.0077,0.9923	-1099.50
0.0179,0.9821	-1120.50
0.0276,0.9724	-1106.43
0.0148,0.9852	-1104.12
0.0057,0.9943	-1105.01
0.0077,0.9923	-1104.37
0.0083,0.9917	-1099.47
0.0143,0.9857	-1104.08
0.0245,0.9755	-1109.40
0.0139,0.9861	-1104.05
0.0063,0.9937	-1104.78
0.0084,0.9916	-1104.23
0.0071,0.9929	-1094.64
0.0163,0.9837	-1112.48
0.0224,0.9776	-1109.05
0.0107,0.9893	-1094.94
0.0080,0.9920	-1094.67
0.0107,0.9893	-1108.53
0.0063,0.9937	-1094.65
0.0141,0.9859	-1099.82
0.0208,0.9792	-1112.67
0.0096,0.9904	-1108.72
0.0076,0.9924	-1094.64
0.0133,0.9867	-1095.41
0.0074,0.9926	-1104.43
0.0142,0.9858	-1104.07
0.0209,0.9791	-1108.84
0.0125,0.9875	-1099.62
0.0052,0.9948	-1094.76
0.0103,0.9897	-1104.02
0.0088,0.9912	-1099.44
0.0152,0.9848	-1104.15
0.0181,0.9819	-1104.52
0.0125,0.9875	-1095.25
0.0055,0.9945	-1094.72
0.0090,0.9910	-1094.74
0.0110,0.9890	-1103.99
0.0150,0.9850	-1104.14
0.0191,0.9809	-1100.74
0.0123,0.9877	-1103.98
0.0055,0.9945	-1094.72
0.0094,0.9906	-1108.75
0.0127,0.9873	-1108.35
0.0144,0.9856	-1104.09
0.0185,0.9815	-1116.49
0.0101,0.9899	-1099.45
0.0060,0.9940	-1094.67
0.0074,0.9926	-1099.54
0.0138,0.9862	-1104.04
0.0138,0.9862	-1104.05
0.0195,0.9805	-1112.58
0.0078,0.9922	-1099.50
0.0068,0.9932	-1109.60
0.0070,0.9930	-1104.56
0.0134,0.9866	-1104.03
0.0122,0.9878	-1103.98
0.0166,0.9834	-1108.39
0.0072,0.9928	-1109.43
0.0083,0.9917	-1113.81
0.0085,0.9915	-1094.69
0.0111,0.9889	-1099.50
0.0116,0.9884	-1103.98
0.0159,0.9841	-1095.97
0.0090,0.9910	-1113.56
0.0095,0.9905	-1094.78
0.0081,0.9919	-1104.29
0.0128,0.9872	-1108.34
0.0093,0.9907	-1099.44
0.0164,0.9836	-1108.38
0.0077,0.9923	-1099.50
0.0118,0.9882	-1103.98
0.0077,0.9923	-1099.51
0.0108,0.9892	-1094.96
0.0100,0.9900	-1104.04
0.0191,0.9809	-1112.55
0.0091,0.9909	-1104.13
0.0086,0.9914	-1094.70
0.0092,0.9908	-1108.79
0.0124,0.9876	-1108.36
0.0139,0.9861	-1104.05
0.0266,0.9734	-1113.40
0.0127,0.9873	-1108.35
0.0118,0.9882	-1099.55
0.0081,0.9919	-1094.67
0.0103,0.9897	-1104.02
0.0153,0.9847	-1108.33
0.0274,0.9726	-1109.95
0.0133,0.9867	-1108.32
0.0102,0.9898	-1104.03
0.0067,0.9933	-1104.65
0.0083,0.9917	-1099.46
0.0119,0.9881	-1108.39
0.0273,0.9727	-1117.09
0.0138,0.9862	-1099.77
0.0073,0.9927	-1099.55
0.0075,0.9925	-1104.40
0.0086,0.9914	-1094.70
0.0128,0.9872	-1095.31
0.0326,0.9674	-1104.34
0.0165,0.9835	-1100.22
0.0060,0.9940	-1099.79
0.0070,0.9930	-1094.64
0.0078,0.9922	-1109.20
0.0131,0.9869	-1099.68
0.0360,0.9640	-1121.82
0.0134,0.9866	-1095.43
0.0055,0.9945	-1099.93
0.0072,0.9928	-1094.64
0.0076,0.9924	-1094.65
0.0155,0.9845	-1108.34
0.0349,0.9651	-1124.96
0.0110,0.9890	-1099.49
0.0065,0.9935	-1099.67
0.0061,0.9939	-1094.66
0.0070,0.9930	-1094.64
0.0177,0.9823	-1100.44
0.0340,0.9660	-1118.15
0.0115,0.9885	-1112.89
0.0059,0.9941	-1094.68
0.0070,0.9930	-1104.53
0.0063,0.9937	-1109.83
0.0177,0.9823	-1100.44
0.0334,0.9666	-1114.67
0.0122,0.9878	-1103.98
0.0068,0.9932	-1094.64
0.0080,0.9920	-1094.66
0.0060,0.9940	-1099.78
0.0157,0.9843	-1116.62
0.0277,0.9723	-1102.90
0.0120,0.9880	-1103.98
0.0066,0.9934	-1104.66
0.0087,0.9913	-1094.72
0.0056,0.9944	-1099.87
0.0156,0.9844	-1120.78
0.0305,0.9695	-1131.38
0.0111,0.9889	-1095.01
0.0055,0.9945	-1099.91
0.0100,0.9900	-1104.04
0.0061,0.9939	-1099.76
0.0117,0.9883	-1099.54
0.0314,0.9686	-1110.83
0.0108,0.9892	-1094.96
0.0077,0.9923	-1094.65
0.0110,0.9890	-1108.49
0.0071,0.9929	-1099.58
0.0116,0.9884	-1103.98
0.0269,0.9731	-1113.45
0.0088,0.9912	-1104.17
0.0083,0.9917	-1104.25
0.0081,0.9919	-1104.28
0.0076,0.9924	-1099.52
0.0106,0.9894	-1094.93
0.0317,0.9683	-1114.33
0.0108,0.9892	-1094.96
0.0084,0.9916	-1094.69
0.0104,0.9896	-1104.01
0.0069,0.9931	-1099.61
0.0116,0.9884	-1103.98
0.0337,0.9663	-1114.73
0.0106,0.9894	-1094.94
0.0096,0.9904	-1099.44
0.0099,0.9901	-1094.83
0.0071,0.9929	-1094.64
0.0138,0.9862	-1099.78
0.0322,0.9678	-1104.22
0.0104,0.9896	-1099.46
0.0100,0.9900	-1094.85
0.0083,0.9917	-1104.25
0.0074,0.9926	-1099.54
0.0181,0.9819	-1104.51
0.0266,0.9734	-1135.00
0.0097,0.9903	-1099.44
0.0094,0.9906	-1104.10
0.0091,0.9909	-1094.74
0.0076,0.9924	-1099.52
0.0171,0.9829	-1120.58
0.0273,0.9727	-1099.22
0.0086,0.9914	-1094.70
0.0092,0.9908	-1099.44
0.0101,0.9899	-1094.87
0.0075,0.9925	-1099.53
0.0158,0.9842	-1104.22
0.0247,0.9753	-1105.75
0.0092,0.9908	-1104.11
0.0081,0.9919	-1099.47
0.0118,0.9882	-1095.12
0.0073,0.9927	-1104.47
0.0144,0.9856	-1108.31
0.0285,0.9715	-1106.66
0.0087,0.9913	-1104.18
0.0067,0.9933	-1104.62
0.0112,0.9888	-1103.98
0.0103,0.9897	-1104.02
0.0141,0.9859	-1108.31
0.0244,0.9756	-1105.69
0.0091,0.9909	-1104.12
0.0061,0.9939	-1094.67
0.0088,0.9912	-1094.72
0.0114,0.9886	-1108.44
0.0138,0.9862	-1104.05
0.0281,0.9719	-1113.65
0.0079,0.9921	-1094.66
0.0056,0.9944	-1099.89
0.0081,0.9919	-1099.48
0.0110,0.9890	-1112.98
0.0163,0.9837	-1112.48
0.0320,0.9680	-1114.39
0.0095,0.9905	-1108.74
0.0054,0.9946	-1094.73
0.0098,0.9902	-1094.83
0.0131,0.9869	-1112.65
0.0168,0.9832	-1104.33
0.0323,0.9677	-1107.65
0.0080,0.9920	-1094.66
0.0047,0.9953	-1094.84
0.0093,0.9907	-1094.77
0.0145,0.9855	-1104.10
0.0191,0.9809	-1116.49
0.0310,0.9690	-1117.63
0.0096,0.9904	-1108.71
0.0040,0.9960	-1100.53
0.0087,0.9913	-1099.45
0.0149,0.9851	-1099.94
0.0159,0.9841	-1104.23
0.0238,0.9762	-1098.14
0.0117,0.9883	-1099.54
0.0050,0.9950	-1100.10
0.0096,0.9904	-1094.80
0.0173,0.9827	-1104.40
0.0202,0.9798	-1108.75
0.0261,0.9739	-1113.31
0.0096,0.9904	-1099.44
0.0055,0.9945	-1094.71
0.0112,0.9888	-1103.98
0.0162,0.9838	-1100.16
0.0213,0.9787	-1112.71
0.0241,0.9759	-1101.93
0.0077,0.9923	-1104.36
0.0057,0.9943	-1099.85
0.0137,0.9863	-1116.87
0.0215,0.9785	-1116.55
0.0248,0.9752	-1120.47
0.0238,0.9762	-1116.71
0.0067,0.9933	-1094.64
0.0062,0.9938	-1099.74
0.0153,0.9847	-1120.83
0.0219,0.9781	-1112.77
0.0233,0.9767	-1112.93
0.0277,0.9723	-1124.25
0.0078,0.9922	-1104.35
0.0069,0.9931	-1099.60
0.0129,0.9871	-1104.00
0.0209,0.9791	-1120.37
0.0257,0.9743	-1102.35
0.0355,0.9645	-1121.73
0.0069,0.9931	-1104.58
0.0077,0.9923	-1094.65
0.0152,0.9848	-1099.98
0.0258,0.9742	-1106.00
0.0260,0.9740	-1120.55
0.0319,0.9681	-1110.96
0.0068,0.9932	-1094.64
0.0054,0.9946	-1105.16
0.0182,0.9818	-1116.50
0.0267,0.9733	-1131.40
0.0203,0.9797	-1112.63
0.0317,0.9683	-1107.47
0.0063,0.9937	-1109.84
0.0067,0.9933	-1094.64
0.0143,0.9857	-1104.08
0.0281,0.9719	-1110.10
0.0204,0.9796	-1104.90
0.0329,0.9671	-1121.33
0.0077,0.9923	-1099.51
0.0084,0.9916	-1099.46
0.0117,0.9883	-1108.41
0.0292,0.9708	-1113.85
0.0214,0.9786	-1120.37
0.0328,0.9672	-1111.17
0.0065,0.9935	-1099.67
0.0104,0.9896	-1094.91
0.0131,0.9869	-1099.69
0.0337,0.9663	-1124.80
0.0236,0.9764	-1109.25
0.0335,0.9665	-1121.41
0.0078,0.9922	-1094.65
0.0106,0.9894	-1104.00
0.0129,0.9871	-1117.01
0.0383,0.9617	-1119.00
0.0245,0.9755	-1113.08
0.0317,0.9683	-1114.33
0.0081,0.9919	-1099.48
0.0085,0.9915	-1104.21
0.0121,0.9879	-1103.98
0.0324,0.9676	-1121.25
0.0244,0.9756	-1127.83
0.0312,0.9688	-1117.66
0.0082,0.9918	-1099.47
0.0096,0.9904	-1099.44
0.0133,0.9867	-1108.32
0.0218,0.9782	-1120.37
0.0302,0.9698	-1114.02
0.0307,0.9693	-1107.21
0.0079,0.9921	-1094.66
0.0113,0.9887	-1112.93
0.0147,0.9853	-1104.11
0.0225,0.9775	-1112.84
0.0316,0.9684	-1117.73
0.0327,0.9673	-1124.69
0.0070,0.9930	-1099.59
0.0108,0.9892	-1099.48
0.0117,0.9883	-1099.54
0.0205,0.9795	-1104.92
0.0205,0.9795	-1104.92
0.0340,0.9660	-1114.80
0.0091,0.9909	-1104.12
0.0116,0.9884	-1095.08
0.0147,0.9853	-1099.91
0.0187,0.9813	-1096.70
0.0223,0.9777	-1116.60
0.0261,0.9739	-1102.47
0.0096,0.9904	-1113.34
0.0134,0.9866	-1099.72
0.0110,0.9890	-1099.49
0.0145,0.9855	-1108.32
0.0265,0.9735	-1102.56
0.0226,0.9774	-1105.32
0.0072,0.9928	-1099.56
0.0142,0.9858	-1112.56
0.0093,0.9907	-1104.10
0.0149,0.9851	-1104.13
0.0257,0.9743	-1106.00
0.0218,0.9782	-1112.77
0.0081,0.9919	-1099.48
0.0134,0.9866	-1104.02
0.0093,0.9907	-1099.44
0.0134,0.9866	-1108.32
0.0256,0.9744	-1109.61
0.0302,0.9698	-1110.56
0.0095,0.9905	-1099.44
0.0159,0.9841	-1108.35
0.0088,0.9912	-1094.72
0.0166,0.9834	-1124.73
0.0238,0.9762	-1105.56
0.0329,0.9671	-1121.32
0.0078,0.9922	-1099.50
0.0139,0.9861	-1104.05
0.0095,0.9905	-1099.44
0.0129,0.9871	-1108.34
0.0195,0.9805	-1108.66
0.0278,0.9722	-1106.47
0.0096,0.9904	-1094.80
0.0125,0.9875	-1099.62
0.0089,0.9911	-1104.16
0.0120,0.9880	-1099.57
0.0175,0.9825	-1096.39
0.0237,0.9763	-1098.11
0.0104,0.9896	-1099.46
0.0108,0.9892	-1099.48
0.0082,0.9918	-1094.68
0.0109,0.9891	-1103.99
0.0217,0.9783	-1116.56
0.0247,0.9753	-1105.76
0.0109,0.9891	-1108.50
0.0102,0.9898	-1099.45
0.0089,0.9911	-1104.16
0.0101,0.9899	-1094.86
0.0197,0.9803	-1108.68
0.0295,0.9705	-1117.39
0.0136,0.9864	-1104.04
0.0106,0.9894	-1104.00
0.0096,0.9904	-1104.08
0.0111,0.9889	-1095.01
0.0162,0.9838	-1124.79
0.0280,0.9720	-1102.99
0.0136,0.9864	-1108.32
0.0126,0.9874	-1108.35
0.0074,0.9926	-1094.64
0.0095,0.9905	-1099.44
0.0194,0.9806	-1100.81
0.0280,0.9720	-1106.54
0.0118,0.9882	-1103.98
0.0087,0.9913	-1094.71
0.0065,0.9935	-1104.71
0.0087,0.9913	-1094.71
0.0157,0.9843	-1104.21
0.0276,0.9724	-1110.01
0.0122,0.9878	-1095.20
0.0092,0.9908	-1099.44
0.0061,0.9939	-1094.66
0.0131,0.9869	-1108.33
0.0159,0.9841	-1108.36
0.0243,0.9757	-1113.07
0.0100,0.9900	-1108.64
0.0104,0.9896	-1108.57
0.0063,0.9937	-1104.78
0.0130,0.9870	-1104.01
0.0164,0.9836	-1116.57
0.0275,0.9725	-1106.42
0.0124,0.9876	-1099.61
0.0107,0.9893	-1104.00
0.0065,0.9935	-1099.68
0.0171,0.9829	-1104.38
0.0135,0.9865	-1121.20
0.0261,0.9739	-1109.70
0.0112,0.9888	-1099.50
0.0100,0.9900	-1094.85
0.0056,0.9944	-1094.71
0.0134,0.9866	-1108.32
0.0142,0.9858	-1112.56
0.0176,0.9824	-1120.53
0.0139,0.9861	-1099.80
0.0085,0.9915	-1094.70
0.0053,0.9947	-1099.99
0.0150,0.9850	-1104.14
0.0166,0.9834	-1100.24
0.0155,0.9845	-1108.34
0.0154,0.9846	-1104.18
0.0085,0.9915	-1104.22
0.0053,0.9947	-1094.74
0.0135,0.9865	-1099.74
0.0178,0.9822	-1100.45
0.0131,0.9869	-1108.33
0.0150,0.9850	-1116.70
0.0074,0.9926	-1128.96
0.0058,0.9942	-1094.69
0.0165,0.9835	-1112.48
0.0184,0.9816	-1124.45
0.0146,0.9854	-1104.11
0.0154,0.9846	-1100.01
0.0085,0.9915	-1104.22
0.0073,0.9927	-1094.64
0.0146,0.9854	-1099.89
0.0145,0.9855	-1095.66
0.0170,0.9830	-1112.48
0.0143,0.9857	-1099.84
0.0095,0.9905	-1108.72
0.0083,0.9917	-1099.46
0.0140,0.9860	-1108.31
0.0154,0.9846	-1100.01
0.0167,0.9833	-1100.26
0.0137,0.9863	-1104.04
0.0089,0.9911	-1094.73
0.0067,0.9933	-1099.63
0.0145,0.9855	-1108.32
0.0161,0.9839	-1112.48
0.0173,0.9827	-1096.33
0.0111,0.9889	-1103.98
0.0092,0.9908	-1099.44
0.0084,0.9916	-1094.69
0.0207,0.9793	-1108.81
0.0125,0.9875	-1099.62
0.0177,0.9823	-1100.44
0.0097,0.9903	-1099.44
0.0083,0.9917	-1099.46
0.0068,0.9932	-1104.60
0.0240,0.9760	-1124.14
0.0102,0.9898	-1108.60
0.0189,0.9811	-1120.44
0.0099,0.9901	-1099.44
0.0092,0.9908	-1099.44
0.0069,0.9931	-1109.56
0.0236,0.9764	-1105.53
0.0132,0.9868	-1104.01
0.0176,0.9824	-1100.42
0.0092,0.9908	-1099.44
0.0076,0.9924	-1099.52
0.0060,0.9940	-1094.67
0.0208,0.9792	-1108.82
0.0120,0.9880	-1099.57
0.0194,0.9806	-1104.72
0.0072,0.9928	-1099.56
0.0076,0.9924	-1099.52
0.0067,0.9933	-1094.64
0.0206,0.9794	-1108.80
0.0108,0.9892	-1094.96
0.0159,0.9841	-1112.48
0.0087,0.9913	-1099.45
0.0069,0.9931	-1099.61
0.0089,0.9911	-1094.73
0.0200,0.9800	-1104.82
0.0090,0.9910	-1094.74
0.0171,0.9829	-1100.32
0.0099,0.9901	-1099.44
0.0061,0.9939	-1094.66
0.0070,0.9930	-1094.64
0.0235,0.9765	-1101.78
0.0065,0.9935	-1094.64
0.0200,0.9800	-1104.83
0.0087,0.9913	-1094.71
0.0058,0.9942	-1099.82
0.0065,0.9935	-1099.67
0.0216,0.9784	-1120.37
0.0060,0.9940	-1099.78
0.0237,0.9763	-1109.27
0.0112,0.9888	-1108.46
0.0072,0.9928	-1094.64
0.0057,0.9943	-1099.85
0.0230,0.9770	-1101.65
0.0070,0.9930	-1104.55
0.0239,0.9761	-1124.14
0.0106,0.9894	-1099.47
0.0105,0.9895	-1099.46
0.0066,0.9934	-1094.64
0.0222,0.9778	-1109.02
0.0059,0.9941	-1094.68
0.0255,0.9745	-1116.87
0.0087,0.9913	-1094.71
0.0093,0.9907	-1099.44
0.0082,0.9918	-1113.85
0.0204,0.9796	-1112.64
0.0059,0.9941	-1099.80
0.0335,0.9665	-1124.78
0.0088,0.9912	-1099.44
0.0088,0.9912	-1099.44
0.0074,0.9926	-1109.34
0.0174,0.9826	-1100.37
0.0060,0.9940	-1094.67
0.0328,0.9672	-1117.93
0.0081,0.9919	-1104.29
0.0111,0.9889	-1099.50
0.0087,0.9913	-1104.18
0.0173,0.9827	-1116.52
0.0054,0.9946	-1094.72
0.0284,0.9716	-1106.63
0.0084,0.9916	-1099.46
0.0123,0.9877	-1103.98
0.0092,0.9908	-1104.12
0.0166,0.9834	-1104.31
0.0049,0.9951	-1094.80
0.0218,0.9782	-1101.35
0.0083,0.9917	-1104.24
0.0132,0.9868	-1112.64
0.0089,0.9911	-1104.15
0.0178,0.9822	-1112.49
0.0047,0.9953	-1100.18
0.0201,0.9799	-1100.96
0.0068,0.9932	-1099.61
0.0111,0.9889	-1099.49
0.0100,0.9900	-1099.44
0.0157,0.9843	-1095.93
0.0051,0.9949	-1100.03
0.0202,0.9798	-1120.39
0.0078,0.9922	-1109.20
0.0113,0.9887	-1099.51
0.0104,0.9896	-1094.90
0.0138,0.9862	-1104.05
0.0053,0.9947	-1094.74
0.0165,0.9835	-1112.48
0.0082,0.9918	-1104.27
0.0122,0.9878	-1108.37
0.0083,0.9917	-1104.25
0.0151,0.9849	-1099.98
0.0058,0.9942	-1094.69
0.0179,0.9821	-1104.49
0.0083,0.9917	-1104.24
0.0128,0.9872	-1104.00
0.0108,0.9892	-1108.51
0.0158,0.9842	-1095.95
0.0060,0.9940	-1099.79
0.0180,0.9820	-1104.50
0.0100,0.9900	-1099.45
0.0132,0.9868	-1099.70
0.0097,0.9903	-1099.44
0.0156,0.9844	-1100.05
0.0071,0.9929	-1094.64
0.0159,0.9841	-1108.36
0.0092,0.9908	-1094.75
0.0144,0.9856	-1099.86
0.0121,0.9879	-1095.17
0.0136,0.9864	-1104.04
0.0079,0.9921	-1104.33
0.0129,0.9871	-1108.34
0.0091,0.9909	-1099.44
0.0125,0.9875	-1095.24
0.0122,0.9878	-1095.20
0.0146,0.9854	-1099.89
0.0079,0.9921	-1099.49
0.0146,0.9854	-1108.32
0.0095,0.9905	-1099.44
0.0123,0.9877	-1112.76
0.0153,0.9847	-1100.01
0.0154,0.9846	-1104.17
0.0092,0.9908	-1099.44
0.0168,0.9832	-1120.62
0.0092,0.9908	-1099.44
0.0141,0.9859	-1099.83
0.0158,0.9842	-1112.48
0.0151,0.9849	-1104.15
0.0110,0.9890	-1099.49
0.0157,0.9843	-1100.06
0.0077,0.9923	-1094.65
0.0131,0.9869	-1095.37
0.0134,0.9866	-1108.32
0.0198,0.9802	-1096.99
0.0149,0.9851	-1104.13
0.0127,0.9873	-1108.35
0.0084,0.9916	-1099.46
0.0116,0.9884	-1095.09
0.0111,0.9889	-1103.98
0.0214,0.9786	-1105.08
0.0162,0.9838	-1108.37
0.0124,0.9876	-1099.61
0.0075,0.9925	-1104.41
0.0114,0.9886	-1099.52
0.0124,0.9876	-1108.36
0.0249,0.9751	-1116.81
0.0150,0.9850	-1099.95
0.0123,0.9877	-1103.98
0.0077,0.9923	-1099.50
0.0089,0.9911	-1099.44
0.0091,0.9909	-1104.12
0.0267,0.9733	-1120.61
0.0161,0.9839	-1112.48
0.0121,0.9879	-1117.18
0.0092,0.9908	-1104.12
0.0078,0.9922	-1099.50
0.0082,0.9918	-1094.68
0.0277,0.9723	-1120.70
0.0185,0.9815	-1100.61
0.0148,0.9852	-1108.32
0.0103,0.9897	-1094.89
0.0066,0.9934	-1099.66
0.0091,0.9909	-1108.81
0.0312,0.9688	-1124.53
0.0172,0.9828	-1100.34
0.0114,0.9886	-1108.44
0.0091,0.9909	-1099.44
0.0065,0.9935	-1104.69
0.0085,0.9915	-1104.21
0.0244,0.9756	-1102.00
0.0178,0.9822	-1100.45
0.0103,0.9897	-1099.45
0.0096,0.9904	-1104.07
0.0073,0.9927	-1104.45
0.0085,0.9915	-1094.70
0.0248,0.9752	-1098.44
0.0218,0.9782	-1120.37
0.0079,0.9921	-1094.66
0.0085,0.9915	-1099.46
0.0087,0.9913	-1108.93
0.0106,0.9894	-1108.53
0.0222,0.9778	-1101.46
0.0226,0.9774	-1105.32
0.0099,0.9901	-1113.25
0.0094,0.9906	-1108.75
0.0102,0.9898	-1099.45
0.0116,0.9884	-1099.53
0.0221,0.9779	-1135.54
0.0226,0.9774	-1109.08
0.0091,0.9909	-1094.75
0.0087,0.9913	-1094.71
0.0116,0.9884	-1112.87
0.0108,0.9892	-1099.48
0.0190,0.9810	-1100.72
0.0246,0.9754	-1105.75
0.0110,0.9890	-1108.49
0.0091,0.9909	-1099.44
0.0133,0.9867	-1104.02
0.0086,0.9914	-1094.71
0.0197,0.9803	-1108.68
0.0247,0.9753	-1109.44
0.0111,0.9889	-1099.49
0.0104,0.9896	-1099.46
0.0139,0.9861	-1108.31
0.0085,0.9915	-1104.22
0.0249,0.9751	-1105.82
0.0300,0.9700	-1120.94
0.0117,0.9883	-1095.10
0.0074,0.9926	-1104.43
0.0128,0.9872	-1104.00
0.0087,0.9913	-1094.71
0.0217,0.9783	-1120.37
0.0342,0.9658	-1114.84
0.0123,0.9877	-1099.60
0.0092,0.9908	-1104.12
0.0162,0.9838	-1108.37
0.0102,0.9898	-1099.45
0.0294,0.9706	-1103.39
0.0311,0.9689	-1107.32
0.0153,0.9847	-1104.17
0.0076,0.9924	-1104.40
0.0197,0.9803	-1124.31
0.0105,0.9895	-1094.92
0.0301,0.9699	-1114.02
0.0283,0.9717	-1106.61
0.0117,0.9883	-1103.98
0.0068,0.9932	-1094.64
0.0192,0.9808	-1108.62
0.0102,0.9898	-1094.88
0.0293,0.9707	-1120.86
0.0259,0.9741	-1106.03
0.0141,0.9859	-1104.06
0.0074,0.9926	-1094.64
0.0209,0.9791	-1116.53
0.0093,0.9907	-1104.10
0.0292,0.9708	-1106.84
0.0347,0.9653	-1111.62
0.0138,0.9862	-1112.59
0.0071,0.9929	-1099.58
0.0235,0.9765	-1105.50
0.0113,0.9887	-1099.51
0.0213,0.9787	-1105.06
0.0282,0.9718	-1117.20
0.0122,0.9878	-1095.20
0.0092,0.9908	-1099.44
0.0244,0.9756	-1113.08
0.0145,0.9855	-1104.10
0.0207,0.9793	-1104.95
0.0310,0.9690	-1124.51
0.0098,0.9902	-1104.06
0.0095,0.9905	-1094.79
0.0259,0.9741	-1113.29
0.0113,0.9887	-1103.98
0.0179,0.9821	-1104.49
0.0278,0.9722	-1127.81
0.0082,0.9918	-1094.67
0.0074,0.9926	-1094.64
0.0268,0.9732	-1109.83
0.0123,0.9877	-1099.60
0.0169,0.9831	-1096.21
0.0241,0.9759	-1116.74
0.0073,0.9927	-1094.64
0.0055,0.9945	-1099.92
0.0254,0.9746	-1105.91
0.0117,0.9883	-1108.42
0.0189,0.9811	-1104.64
0.0218,0.9782	-1116.57
0.0065,0.9935	-1094.64
0.0051,0.9949	-1100.05
0.0260,0.9740	-1109.67
0.0133,0.9867	-1104.02
0.0194,0.9806	-1112.57
0.0171,0.9829	-1112.48
0.0089,0.9911	-1094.73
0.0054,0.9946	-1099.96
0.0217,0.9783	-1112.76
0.0127,0.9873	-1121.41
0.0146,0.9854	-1099.89
0.0158,0.9842	-1100.08
0.0087,0.9913	-1094.71
0.0047,0.9953	-1094.86
0.0209,0.9791	-1108.83
0.0116,0.9884	-1103.98
0.0177,0.9823	-1108.48
0.0174,0.9826	-1108.45
0.0103,0.9897	-1113.16
0.0067,0.9933	-1099.64
0.0254,0.9746	-1124.16
0.0124,0.9876	-1108.36
0.0196,0.9804	-1100.85
0.0207,0.9793	-1104.95
0.0097,0.9903	-1099.44
0.0068,0.9932	-1109.57
0.0249,0.9751	-1124.15
0.0141,0.9859	-1104.06
0.0239,0.9761	-1116.72
0.0242,0.9758	-1109.34
0.0086,0.9914	-1099.45
0.0074,0.9926	-1099.54
0.0332,0.9668	-1111.25
0.0155,0.9845	-1104.19
0.0317,0.9683	-1124.58
0.0310,0.9690	-1117.62
0.0099,0.9901	-1104.05
0.0091,0.9909	-1094.74
0.0338,0.9662	-1111.41
0.0148,0.9852	-1104.12
0.0272,0.9728	-1106.35
0.0342,0.9658	-1121.52
0.0118,0.9882	-1103.98
0.0089,0.9911	-1099.44
0.0220,0.9780	-1101.41
0.0147,0.9853	-1099.91
0.0289,0.9711	-1103.24
0.0332,0.9668	-1118.00
0.0141,0.9859	-1108.31
0.0096,0.9904	-1108.70
0.0303,0.9697	-1120.97
0.0116,0.9884	-1095.09
0.0344,0.9656	-1118.22
0.0414,0.9586	-1125.97
0.0168,0.9832	-1108.41
0.0098,0.9902	-1099.44
0.0368,0.9632	-1115.41
0.0120,0.9880	-1103.98
0.0319,0.9681	-1128.01
0.0403,0.9597	-1128.94
0.0157,0.9843	-1116.62
0.0123,0.9877	-1099.60
0.0343,0.9657	-1111.53
0.0124,0.9876	-1099.61
0.0303,0.9697	-1120.98
0.0352,0.9648	-1121.69
0.0187,0.9813	-1104.61
0.0085,0.9915	-1099.45
0.0275,0.9725	-1109.99
0.0130,0.9870	-1125.67
0.0266,0.9734	-1113.40
0.0315,0.9685	-1103.99
0.0193,0.9807	-1100.79
0.0082,0.9918	-1099.47
0.0209,0.9791	-1108.84
0.0111,0.9889	-1099.50
0.0242,0.9758	-1116.75
0.0237,0.9763	-1112.99
0.0240,0.9760	-1113.02
0.0075,0.9925	-1094.64
0.0201,0.9799	-1116.50
0.0119,0.9881	-1099.56
0.0238,0.9762	-1101.86
0.0282,0.9718	-1117.20
0.0231,0.9769	-1105.43
0.0079,0.9921	-1109.17
0.0162,0.9838	-1096.05
0.0127,0.9873	-1099.64
0.0216,0.9784	-1108.93
0.0286,0.9714	-1110.21
0.0237,0.9763	-1116.70
0.0092,0.9908	-1099.44
0.0179,0.9821	-1096.47
0.0124,0.9876	-1103.99
0.0181,0.9819	-1108.51
0.0247,0.9753	-1113.11
0.0193,0.9807	-1104.71
0.0117,0.9883	-1099.54
0.0139,0.9861	-1099.79
0.0163,0.9837	-1108.38
0.0158,0.9842	-1100.09
0.0229,0.9771	-1112.89
0.0184,0.9816	-1096.62
0.0152,0.9848	-1104.15
0.0120,0.9880	-1099.57
0.0152,0.9848	-1104.16
0.0101,0.9899	-1094.87
0.0269,0.9731	-1109.85
0.0191,0.9809	-1108.61
0.0163,0.9837	-1108.38
0.0121,0.9879	-1099.58
0.0168,0.9832	-1100.28
0.0088,0.9912	-1108.90
0.0225,0.9775	-1109.07
0.0188,0.9812	-1100.66
0.0112,0.9888	-1099.50
0.0160,0.9840	-1104.24
0.0166,0.9834	-1096.15
0.0075,0.9925	-1099.53
0.0218,0.9782	-1097.54
0.0165,0.9835	-1100.21
0.0112,0.9888	-1099.50
0.0118,0.9882	-1103.98
0.0126,0.9874	-1103.99
0.0078,0.9922	-1094.66
0.0203,0.9797	-1132.01
0.0190,0.9810	-1112.55
0.0103,0.9897	-1104.02
0.0119,0.9881	-1095.13
0.0122,0.9878	-1099.59
0.0073,0.9927	-1104.48
0.0223,0.9777	-1112.81
0.0178,0.9822	-1116.51
0.0105,0.9895	-1113.10
0.0099,0.9901	-1104.05
0.0127,0.9873	-1103.99
0.0088,0.9912	-1099.44
0.0159,0.9841	-1100.11
0.0154,0.9846	-1112.49
0.0113,0.9887	-1099.51
0.0107,0.9893	-1113.04
0.0111,0.9889	-1108.47
0.0085,0.9915	-1108.98
0.0187,0.9813	-1108.57
0.0169,0.9831	-1108.42
0.0110,0.9890	-1094.99
0.0119,0.9881	-1099.56
0.0128,0.9872	-1104.00
0.0103,0.9897	-1094.89
0.0160,0.9840	-1100.13
0.0117,0.9883	-1099.54
0.0104,0.9896	-1108.58
0.0109,0.9891	-1094.98
0.0138,0.9862	-1112.59
0.0097,0.9903	-1094.81
0.0182,0.9818	-1116.50
0.0110,0.9890	-1108.48
0.0109,0.9891	-1103.99
0.0139,0.9861	-1104.05
0.0128,0.9872	-1103.99
0.0087,0.9913	-1113.66
0.0186,0.9814	-1100.62
0.0107,0.9893	-1094.94
0.0119,0.9881	-1117.23
0.0131,0.9869	-1108.33
0.0170,0.9830	-1108.42
0.0102,0.9898	-1099.45
0.0181,0.9819	-1112.50
0.0128,0.9872	-1104.00
0.0101,0.9899	-1094.87
0.0091,0.9909	-1099.44
0.0206,0.9794	-1112.65
0.0122,0.9878	-1103.98
0.0255,0.9745	-1116.87
0.0153,0.9847	-1108.33
0.0113,0.9887	-1095.03
0.0086,0.9914	-1099.45
0.0170,0.9830	-1104.36
0.0108,0.9892	-1117.56
0.0252,0.9748	-1102.22
0.0165,0.9835	-1100.22
0.0117,0.9883	-1095.10
0.0075,0.9925	-1099.53
0.0237,0.9763	-1109.27
0.0102,0.9898	-1099.45
0.0239,0.9761	-1101.89
0.0164,0.9836	-1104.29
0.0136,0.9864	-1099.75
0.0074,0.9926	-1094.64
0.0219,0.9781	-1108.97
0.0127,0.9873	-1099.64
0.0258,0.9742	-1116.91
0.0143,0.9857	-1108.31
0.0164,0.9836	-1096.09
0.0081,0.9919	-1094.67
0.0237,0.9763	-1105.55
0.0141,0.9859	-1108.31
0.0269,0.9731	-1109.86
0.0147,0.9853	-1104.11
0.0176,0.9824	-1096.39
0.0067,0.9933	-1099.64
0.0309,0.9691	-1117.61
0.0148,0.9852	-1099.92
0.0194,0.9806	-1120.41
0.0166,0.9834	-1108.39
0.0226,0.9774	-1101.54
0.0066,0.9934	-1094.64
0.0307,0.9693	-1107.21
0.0155,0.9845	-1095.89
0.0171,0.9829	-1108.43
0.0147,0.9853	-1095.70
0.0204,0.9796	-1104.90
0.0066,0.9934	-1114.72
0.0274,0.9726	-1109.95
0.0195,0.9805	-1104.74
0.0176,0.9824	-1112.49
0.0154,0.9846	-1108.34
0.0236,0.9764	-1109.24
0.0062,0.9938	-1099.74
0.0339,0.9661	-1114.77
0.0242,0.9758	-1113.05
0.0219,0.9781	-1108.98
0.0172,0.9828	-1108.43
0.0192,0.9808	-1120.42
0.0081,0.9919	-1099.48
0.0266,0.9734	-1109.80
0.0242,0.9758	-1109.35
0.0189,0.9811	-1104.64
0.0194,0.9806	-1104.72
0.0185,0.9815	-1104.58
0.0098,0.9902	-1104.05
0.0246,0.9754	-1102.07
0.0222,0.9778	-1101.46
0.0201,0.9799	-1108.72
0.0211,0.9789	-1108.86
0.0189,0.9811	-1124.39
0.0125,0.9875	-1099.62
0.0240,0.9760	-1113.02
0.0201,0.9799	-1112.62
0.0224,0.9776	-1112.83
0.0246,0.9754	-1109.42
0.0152,0.9848	-1108.33
0.0148,0.9852	-1095.72
0.0223,0.9777	-1112.81
0.0202,0.9798	-1112.63
0.0167,0.9833	-1108.40
0.0227,0.9773	-1101.57
0.0151,0.9849	-1108.33
0.0151,0.9849	-1099.98
0.0211,0.9789	-1101.18
0.0189,0.9811	-1104.63
0.0166,0.9834	-1112.48
0.0267,0.9733	-1106.22
0.0153,0.9847	-1104.16
0.0164,0.9836	-1100.20
0.0195,0.9805	-1096.89
0.0189,0.9811	-1116.49
0.0147,0.9853	-1095.71
0.0248,0.9752	-1109.46
0.0140,0.9860	-1108.31
0.0228,0.9772	-1112.87
0.0163,0.9837	-1104.28
0.0155,0.9845	-1108.34
0.0117,0.9883	-1095.11
0.0246,0.9754	-1113.10
0.0181,0.9819	-1104.52
0.0189,0.9811	-1104.64
0.0139,0.9861	-1104.05
0.0158,0.9842	-1112.48
0.0107,0.9893	-1108.52
0.0227,0.9773	-1105.33
0.0200,0.9800	-1120.39
0.0191,0.9809	-1100.74
0.0158,0.9842	-1104.22
0.0136,0.9864	-1108.32
0.0118,0.9882	-1095.13
0.0250,0.9750	-1120.48
0.0168,0.9832	-1116.55
0.0175,0.9825	-1104.43
0.0212,0.9788	-1120.37
0.0170,0.9830	-1108.42
0.0087,0.9913	-1094.71
0.0278,0.9722	-1117.15
0.0191,0.9809	-1104.68
0.0168,0.9832	-1100.27
0.0164,0.9836	-1108.38
0.0205,0.9795	-1101.05
0.0109,0.9891	-1094.97
0.0295,0.9705	-1106.91
0.0188,0.9812	-1104.62
0.0149,0.9851	-1104.13
0.0203,0.9797	-1101.01
0.0142,0.9858	-1112.55
0.0096,0.9904	-1104.07
0.0346,0.9654	-1124.92
0.0183,0.9817	-1104.55
0.0172,0.9828	-1112.48
0.0188,0.9812	-1100.66
0.0116,0.9884	-1099.53
0.0104,0.9896	-1104.01
0.0351,0.9649	-1124.98
0.0178,0.9822	-1096.45
0.0176,0.9824	-1104.44
0.0165,0.9835	-1100.20
0.0078,0.9922	-1099.50
0.0131,0.9869	-1095.37
0.0318,0.9682	-1124.59
0.0191,0.9809	-1112.55
0.0203,0.9797	-1104.87
0.0144,0.9856	-1104.08
0.0065,0.9935	-1094.65
0.0130,0.9870	-1104.00
0.0359,0.9641	-1118.51
0.0254,0.9746	-1105.92
0.0202,0.9798	-1108.75
0.0161,0.9839	-1116.59
0.0054,0.9946	-1094.73
0.0152,0.9848	-1112.50
0.0297,0.9703	-1110.44
0.0245,0.9755	-1120.46
0.0241,0.9759	-1105.64
0.0136,0.9864	-1108.32
0.0048,0.9952	-1100.15
0.0121,0.9879	-1108.38
0.0244,0.9756	-1124.14
0.0251,0.9749	-1105.85
0.0308,0.9692	-1114.14
0.0109,0.9891	-1103.99
0.0052,0.9948	-1094.75
0.0126,0.9874	-1103.99
0.0278,0.9722	-1106.49
0.0181,0.9819	-1108.51
0.0244,0.9756	-1102.00
0.0126,0.9874	-1099.63
0.0079,0.9921	-1099.49
0.0150,0.9850	-1099.96
0.0225,0.9775	-1105.29
0.0210,0.9790	-1112.69
0.0285,0.9715	-1099.61
0.0138,0.9862	-1104.05
0.0090,0.9910	-1108.85
0.0164,0.9836	-1096.11
0.0248,0.9752	-1109.45
0.0194,0.9806	-1108.65
0.0260,0.9740	-1102.44
0.0141,0.9859	-1099.82
0.0092,0.9908	-1104.12
0.0168,0.9832	-1100.26
0.0256,0.9744	-1113.24
0.0185,0.9815	-1104.57
0.0261,0.9739	-1124.18
0.0159,0.9841	-1108.36
0.0094,0.9906	-1099.44
0.0137,0.9863	-1095.48
0.0215,0.9785	-1116.55
0.0218,0.9782	-1108.96
0.0236,0.9764	-1109.24
0.0169,0.9831	-1112.48
0.0083,0.9917	-1104.25
0.0154,0.9846	-1112.49
0.0188,0.9812	-1108.58
0.0211,0.9789	-1108.87
0.0271,0.9729	-1117.05
0.0162,0.9838	-1108.37
0.0087,0.9913	-1104.19
0.0174,0.9826	-1104.42
0.0135,0.9865	-1095.45
0.0227,0.9773	-1120.39
0.0236,0.9764	-1101.81
0.0142,0.9858	-1104.07
0.0074,0.9926	-1099.53
0.0135,0.9865	-1099.74
0.0112,0.9888	-1095.03
0.0207,0.9793	-1108.81
0.0207,0.9793	-1104.96
0.0140,0.9860	-1099.81
0.0079,0.9921	-1094.66
0.0128,0.9872	-1104.00
0.0104,0.9896	-1099.46
0.0188,0.9812	-1112.54
0.0192,0.9808	-1104.69
0.0117,0.9883	-1121.71
0.0072,0.9928	-1099.57
0.0111,0.9889	-1103.99
0.0087,0.9913	-1099.45
0.0221,0.9779	-1109.01
0.0202,0.9798	-1108.74
0.0112,0.9888	-1099.50
0.0091,0.9909	-1094.75
0.0104,0.9896	-1099.46
0.0078,0.9922	-1099.50
0.0200,0.9800	-1116.50
0.0210,0.9790	-1116.53
0.0125,0.9875	-1095.24
0.0098,0.9902	-1094.83
0.0098,0.9902	-1099.44
0.0082,0.9918	-1094.68
0.0199,0.9801	-1108.70
0.0187,0.9813	-1104.61
0.0143,0.9857	-1104.08
0.0114,0.9886	-1103.98
0.0073,0.9927	-1094.64
0.0082,0.9918	-1104.26
0.0217,0.9783	-1116.57
0.0150,0.9850	-1108.32
0.0123,0.9877	-1099.60
0.0108,0.9892	-1099.48
0.0060,0.9940	-1094.67
0.0095,0.9905	-1099.44
0.0210,0.9790	-1108.84
0.0117,0.9883	-1112.85
0.0100,0.9900	-1094.85
0.0131,0.9869	-1108.33
0.0051,0.9949	-1105.31
0.0099,0.9901	-1094.83
0.0221,0.9779	-1109.01
0.0097,0.9903	-1094.82
0.0111,0.9889	-1103.98
0.0117,0.9883	-1095.11
0.0044,0.9956	-1100.32
0.0085,0.9915	-1104.22
0.0251,0.9749	-1120.49
0.0110,0.9890	-1099.49
0.0135,0.9865	-1104.03
0.0096,0.9904	-1099.44
0.0047,0.9953	-1100.20
0.0080,0.9920	-1094.66
0.0231,0.9769	-1120.40
0.0121,0.9879	-1103.98
0.0136,0.9864	-1099.76
0.0102,0.9898	-1104.03
0.0060,0.9940	-1099.79
0.0077,0.9923	-1094.65
0.0291,0.9709	-1117.33
0.0131,0.9869	-1104.01
0.0122,0.9878	-1108.37
0.0065,0.9935	-1099.68
0.0066,0.9934	-1094.64
0.0096,0.9904	-1104.07
0.0219,0.9781	-1105.18
0.0179,0.9821	-1096.48
0.0112,0.9888	-1103.98
0.0082,0.9918	-1094.67
0.0055,0.9945	-1115.47
0.0098,0.9902	-1108.68
0.0194,0.9806	-1112.57
0.0183,0.9817	-1104.55
0.0114,0.9886	-1103.98
0.0053,0.9947	-1094.74
0.0044,0.9956	-1100.35
0.0094,0.9906	-1099.44
0.0202,0.9798	-1104.86
0.0186,0.9814	-1108.56
0.0123,0.9877	-1099.59
0.0066,0.9934	-1114.67
0.0054,0.9946	-1094.73
0.0114,0.9886	-1099.52
0.0249,0.9751	-1105.80
0.0207,0.9793	-1101.10
0.0113,0.9887	-1095.04
0.0088,0.9912	-1094.72
0.0047,0.9953	-1094.85
0.0093,0.9907	-1099.44
0.0237,0.9763	-1109.27
0.0193,0.9807	-1104.70
0.0137,0.9863	-1095.49
0.0078,0.9922	-1099.50
0.0044,0.9956	-1105.76
0.0096,0.9904	-1094.80
0.0193,0.9807	-1108.63
0.0124,0.9876	-1099.61
0.0134,0.9866	-1104.02
0.0097,0.9903	-1108.69
0.0043,0.9957	-1094.94
0.0107,0.9893	-1094.95
0.0187,0.9813	-1108.57
0.0129,0.9871	-1112.68
0.0144,0.9856	-1112.54
0.0103,0.9897	-1113.15
0.0049,0.9951	-1094.81
0.0113,0.9887	-1099.51
0.0270,0.9730	-1113.46
0.0121,0.9879	-1103.98
0.0173,0.9827	-1108.44
0.0121,0.9879	-1103.98
0.0044,0.9956	-1105.74
0.0118,0.9882	-1099.55
0.0190,0.9810	-1100.71
0.0110,0.9890	-1095.00
0.0176,0.9824	-1104.44
0.0115,0.9885	-1103.98
0.0049,0.9951	-1094.81
0.0118,0.9882	-1103.98
0.0180,0.9820	-1096.51
0.0097,0.9903	-1094.81
0.0175,0.9825	-1100.41
0.0153,0.9847	-1100.01
0.0051,0.9949	-1094.78
0.0168,0.9832	-1116.55
0.0188,0.9812	-1100.66
0.0112,0.9888	-1108.46
0.0158,0.9842	-1108.35
0.0178,0.9822	-1100.45
0.0073,0.9927	-1099.55
0.0144,0.9856	-1099.86
0.0165,0.9835	-1104.30
0.0107,0.9893	-1099.47
0.0137,0.9863	-1099.77
0.0203,0.9797	-1112.63
0.0058,0.9942	-1094.69
0.0125,0.9875	-1099.61
0.0126,0.9874	-1112.72
0.0117,0.9883	-1099.54
0.0147,0.9853	-1112.52
0.0223,0.9777	-1120.38
0.0066,0.9934	-1099.66
0.0155,0.9845	-1108.34
0.0114,0.9886	-1099.52
0.0109,0.9891	-1094.97
0.0168,0.9832	-1112.48
0.0218,0.9782	-1116.57
0.0061,0.9939	-1099.76
0.0148,0.9852	-1108.32
0.0092,0.9908	-1099.44
0.0111,0.9889	-1103.99
0.0186,0.9814	-1104.59
0.0194,0.9806	-1100.81
0.0070,0.9930	-1104.55
0.0117,0.9883	-1108.42
0.0069,0.9931	-1099.61
0.0099,0.9901	-1094.84
0.0182,0.9818	-1104.54
0.0154,0.9846	-1100.02
0.0075,0.9925	-1099.53
0.0092,0.9908	-1104.12
0.0063,0.9937	-1099.71
0.0071,0.9929	-1104.51
0.0224,0.9776	-1101.49
0.0249,0.9751	-1113.15
0.0056,0.9944	-1115.40
0.0072,0.9928	-1109.43
0.0069,0.9931	-1094.64
0.0094,0.9906	-1099.44
0.0207,0.9793	-1112.66
0.0275,0.9725	-1109.99
0.0066,0.9934	-1104.66
0.0064,0.9936	-1099.70
0.0078,0.9922	-1099.50
0.0085,0.9915	-1099.45
0.0265,0.9735	-1113.38
0.0251,0.9749	-1098.55
0.0057,0.9943	-1099.85
0.0079,0.9921	-1099.49
0.0085,0.9915	-1104.22
0.0073,0.9927	-1094.64
0.0235,0.9765	-1116.69
0.0255,0.9745	-1109.59
0.0083,0.9917	-1099.46
0.0069,0.9931	-1094.64
0.0064,0.9936	-1104.74
0.0077,0.9923	-1104.37
0.0202,0.9798	-1104.86
0.0245,0.9755	-1105.73
0.0068,0.9932	-1104.61
0.0067,0.9933	-1094.64
0.0079,0.9921	-1099.49
0.0085,0.9915	-1094.70
0.0223,0.9777	-1112.82
0.0233,0.9767	-1112.93
0.0076,0.9924	-1094.65
0.0071,0.9929	-1099.58
0.0098,0.9902	-1099.44
0.0107,0.9893	-1108.53
0.0242,0.9758	-1116.75
0.0196,0.9804	-1104.75
0.0071,0.9929	-1094.64
0.0072,0.9928	-1099.57
0.0096,0.9904	-1099.44
0.0087,0.9913	-1099.45
0.0188,0.9812	-1108.58
0.0192,0.9808	-1100.75
0.0064,0.9936	-1094.65
0.0085,0.9915	-1104.21
0.0076,0.9924	-1099.52
0.0083,0.9917	-1094.68
0.0239,0.9761	-1105.60
0.0216,0.9784	-1108.94
0.0076,0.9924	-1104.40
0.0082,0.9918	-1094.68
0.0095,0.9905	-1099.44
0.0093,0.9907	-1108.78
0.0275,0.9725	-1106.41
0.0259,0.9741	-1124.17
0.0079,0.9921	-1099.49
0.0078,0.9922	-1094.65
0.0121,0.9879	-1103.98
0.0104,0.9896	-1099.46
0.0243,0.9757	-1109.37
0.0247,0.9753	-1105.76
0.0070,0.9930	-1099.59
0.0093,0.9907	-1099.44
0.0145,0.9855	-1104.09
0.0141,0.9859	-1104.07
0.0293,0.9707	-1120.86
0.0236,0.9764	-1112.97
0.0060,0.9940	-1104.87
0.0095,0.9905	-1108.74
0.0135,0.9865	-1099.74
0.0144,0.9856	-1108.31
0.0226,0.9774	-1109.09
0.0254,0.9746	-1105.93
0.0050,0.9950	-1100.07
0.0086,0.9914	-1094.70
0.0140,0.9860	-1112.57
0.0166,0.9834	-1104.32
0.0190,0.9810	-1104.65
0.0286,0.9714	-1106.69
0.0047,0.9953	-1100.19
0.0098,0.9902	-1104.06
0.0146,0.9854	-1104.10
0.0140,0.9860	-1099.81
0.0192,0.9808	-1100.76
0.0230,0.9770	-1116.65
0.0067,0.9933	-1099.63
0.0108,0.9892	-1094.96
0.0180,0.9820	-1100.50
0.0169,0.9831	-1108.41
0.0175,0.9825	-1104.43
0.0208,0.9792	-1108.82
0.0061,0.9939	-1104.84
0.0097,0.9903	-1099.44
0.0132,0.9868	-1104.01
0.0139,0.9861	-1104.05
0.0182,0.9818	-1108.52
0.0221,0.9779	-1112.80
0.0080,0.9920	-1099.48
0.0073,0.9927	-1094.64
0.0127,0.9873	-1095.28
0.0133,0.9867	-1099.71
0.0191,0.9809	-1108.61
0.0253,0.9747	-1109.56
0.0083,0.9917	-1109.04
0.0082,0.9918	-1099.47
0.0126,0.9874	-1103.99
0.0180,0.9820	-1108.50
0.0130,0.9870	-1104.00
0.0234,0.9766	-1109.21
0.0075,0.9925	-1104.41
0.0095,0.9905	-1094.79
0.0120,0.9880	-1095.15
0.0176,0.9824	-1096.40
0.0141,0.9859	-1112.56
0.0223,0.9777	-1105.26
0.0066,0.9934	-1104.67
0.0094,0.9906	-1094.78
0.0108,0.9892	-1108.51
0.0122,0.9878	-1095.19
0.0187,0.9813	-1108.56
0.0209,0.9791	-1124.22
0.0056,0.9944	-1099.88
0.0139,0.9861	-1099.78
0.0092,0.9908	-1104.11
0.0125,0.9875	-1108.36
0.0191,0.9809	-1104.67
0.0213,0.9787	-1112.71
0.0064,0.9936	-1104.72
0.0170,0.9830	-1100.31
0.0092,0.9908	-1099.44
0.0137,0.9863	-1095.49
0.0157,0.9843	-1108.35
0.0206,0.9794	-1120.38
0.0070,0.9930	-1094.64
0.0172,0.9828	-1104.40
0.0097,0.9903	-1104.06
0.0106,0.9894	-1099.47
0.0158,0.9842	-1100.09
0.0172,0.9828	-1104.39
0.0082,0.9918	-1099.47
0.0182,0.9818	-1108.52
0.0102,0.9898	-1108.60
0.0083,0.9917	-1094.68
0.0121,0.9879	-1108.38
0.0191,0.9809	-1100.73
0.0089,0.9911	-1104.16
0.0135,0.9865	-1095.44
0.0104,0.9896	-1094.90
0.0077,0.9923	-1104.37
0.0134,0.9866	-1104.02
0.0191,0.9809	-1104.67
0.0104,0.9896	-1099.46
0.0145,0.9855	-1104.10
0.0133,0.9867	-1104.02
0.0074,0.9926	-1104.44
0.0123,0.9877	-1103.98
0.0183,0.9817	-1112.51
0.0106,0.9894	-1099.47
0.0131,0.9869	-1095.37
0.0108,0.9892	-1104.00
0.0083,0.9917	-1109.02
0.0152,0.9848	-1108.33
0.0231,0.9769	-1124.14
0.0141,0.9859	-1108.31
0.0162,0.9838	-1108.37
0.0097,0.9903	-1099.44
0.0078,0.9922	-1099.50
0.0143,0.9857	-1099.85
0.0212,0.9788	-1112.71
0.0140,0.9860	-1104.06
0.0133,0.9867	-1108.32
0.0116,0.9884	-1095.09
0.0075,0.9925	-1094.64
0.0158,0.9842	-1100.09
0.0230,0.9770	-1105.39
0.0146,0.9854	-1108.32
0.0148,0.9852	-1104.12
0.0149,0.9851	-1112.51
0.0065,0.9935	-1094.64
0.0172,0.9828	-1104.38
0.0221,0.9779	-1112.79
0.0149,0.9851	-1099.94
0.0125,0.9875	-1095.25
0.0121,0.9879	-1103.98
0.0058,0.9942	-1099.84
0.0148,0.9852	-1099.92
0.0234,0.9766	-1105.48
0.0130,0.9870	-1104.00
0.0092,0.9908	-1104.12
0.0122,0.9878	-1099.58
0.0068,0.9932	-1104.61
0.0138,0.9862	-1095.51
0.0231,0.9769	-1105.42
0.0167,0.9833	-1104.32
0.0091,0.9909	-1099.44
0.0107,0.9893	-1094.95
0.0062,0.9938	-1104.82
0.0121,0.9879	-1099.58
0.0258,0.9742	-1106.00
0.0144,0.9856	-1104.08
0.0102,0.9898	-1099.45
0.0127,0.9873	-1099.64
0.0067,0.9933	-1099.64
0.0127,0.9873	-1095.29
0.0207,0.9793	-1104.94
0.0119,0.9881	-1103.98
0.0084,0.9916	-1094.69
0.0136,0.9864	-1099.75
0.0070,0.9930	-1094.64
0.0142,0.9858	-1108.31
0.0203,0.9797	-1116.51
0.0096,0.9904	-1113.36
0.0106,0.9894	-1099.47
0.0134,0.9866	-1099.72
0.0094,0.9906	-1104.09
0.0114,0.9886	-1095.05
0.0200,0.9800	-1104.82
0.0097,0.9903	-1104.07
0.0108,0.9892	-1099.48
0.0158,0.9842	-1112.48
0.0088,0.9912	-1094.72
0.0106,0.9894	-1094.93
0.0172,0.9828	-1100.34
0.0102,0.9898	-1094.88
0.0087,0.9913	-1104.18
0.0156,0.9844	-1104.20
0.0069,0.9931	-1094.64
0.0109,0.9891	-1099.48
0.0190,0.9810	-1116.49
0.0104,0.9896	-1108.58
0.0085,0.9915	-1104.21
0.0150,0.9850	-1095.76
0.0067,0.9933	-1094.64
0.0085,0.9915	-1094.69
0.0168,0.9832	-1104.33
0.0130,0.9870	-1095.34
0.0096,0.9904	-1104.08
0.0142,0.9858	-1095.59
0.0073,0.9927	-1109.37
0.0078,0.9922	-1109.19
0.0188,0.9812	-1112.53
0.0125,0.9875	-1099.62
0.0108,0.9892	-1108.52
0.0144,0.9856	-1104.09
0.0074,0.9926	-1094.64
0.0096,0.9904	-1099.44
0.0149,0.9851	-1099.94
0.0164,0.9836	-1116.57
0.0149,0.9851	-1104.13
0.0148,0.9852	-1116.71
0.0078,0.9922	-1109.18
0.0106,0.9894	-1108.53
0.0144,0.9856	-1112.54
0.0133,0.9867	-1104.02
0.0136,0.9864	-1112.61
0.0103,0.9897	-1104.02
0.0097,0.9903	-1104.06
0.0124,0.9876	-1095.22
0.0189,0.9811	-1112.54
0.0159,0.9841	-1104.23
0.0128,0.9872	-1099.65
0.0120,0.9880	-1099.57
0.0113,0.9887	-1108.45
0.0092,0.9908	-1099.44
0.0216,0.9784	-1116.56
0.0186,0.9814	-1104.59
0.0135,0.9865	-1108.32
0.0126,0.9874	-1112.72
0.0106,0.9894	-1104.00
0.0090,0.9910	-1099.44
0.0204,0.9796	-1116.51
0.0181,0.9819	-1112.50
0.0178,0.9822	-1104.48
0.0103,0.9897	-1094.88
0.0118,0.9882	-1095.13
0.0083,0.9917	-1104.26
0.0197,0.9803	-1112.59
0.0218,0.9782	-1105.16
0.0165,0.9835	-1108.39
0.0105,0.9895	-1094.92
0.0106,0.9894	-1094.94
0.0077,0.9923	-1104.38
0.0195,0.9805	-1116.49
0.0244,0.9756	-1102.00
0.0185,0.9815	-1108.55
0.0100,0.9900	-1094.85
0.0095,0.9905	-1094.79
0.0067,0.9933	-1094.64
0.0186,0.9814	-1120.46
0.0208,0.9792	-1108.82
0.0187,0.9813	-1104.61
0.0089,0.9911	-1104.16
0.0092,0.9908	-1099.44
0.0073,0.9927	-1099.55
0.0181,0.9819	-1112.50
0.0192,0.9808	-1108.62
0.0209,0.9791	-1104.99
0.0092,0.9908	-1099.44
0.0110,0.9890	-1108.49
0.0069,0.9931	-1099.60
0.0154,0.9846	-1112.49
0.0183,0.9817	-1100.57
0.0212,0.9788	-1105.05
0.0087,0.9913	-1094.71
0.0102,0.9898	-1104.03
0.0103,0.9897	-1104.02
0.0175,0.9825	-1096.37
0.0199,0.9801	-1104.81
0.0193,0.9807	-1108.63
0.0094,0.9906	-1094.78
0.0109,0.9891	-1099.48
0.0123,0.9877	-1108.37
0.0142,0.9858	-1104.07
0.0149,0.9851	-1108.32
0.0187,0.9813	-1100.64
0.0101,0.9899	-1099.45
0.0099,0.9901	-1099.44
0.0115,0.9885	-1099.53
0.0143,0.9857	-1104.08
0.0119,0.9881	-1103.98
0.0178,0.9822	-1100.46
0.0098,0.9902	-1108.66
0.0075,0.9925	-1104.40
0.0093,0.9907	-1104.10
0.0138,0.9862	-1112.59
0.0173,0.9827	-1104.40
0.0223,0.9777	-1124.16
0.0104,0.9896	-1104.02
0.0067,0.9933	-1109.62
0.0095,0.9905	-1104.09
0.0140,0.9860	-1095.55
0.0202,0.9798	-1112.62
0.0209,0.9791	-1116.53
0.0103,0.9897	-1104.02
0.0060,0.9940	-1099.78
0.0080,0.9920	-1109.12
0.0172,0.9828	-1104.40
0.0176,0.9824	-1100.43
0.0221,0.9779	-1105.21
0.0094,0.9906	-1099.44
0.0063,0.9937	-1104.78
0.0089,0.9911	-1104.15
0.0177,0.9823	-1100.45
0.0153,0.9847	-1112.50
0.0163,0.9837	-1108.37
0.0073,0.9927	-1094.64
0.0079,0.9921	-1099.49
0.0071,0.9929	-1094.64
0.0183,0.9817	-1104.55
0.0132,0.9868	-1099.70
0.0152,0.9848	-1120.85
0.0072,0.9928	-1099.56
0.0080,0.9920	-1099.48
0.0080,0.9920	-1094.66
0.0200,0.9800	-1108.72
0.0145,0.9855	-1099.88
0.0173,0.9827	-1100.37
0.0066,0.9934	-1094.64
0.0078,0.9922	-1099.50
0.0095,0.9905	-1094.79
0.0215,0.9785	-1097.47
0.0124,0.9876	-1095.23
0.0146,0.9854	-1125.16
0.0077,0.9923	-1104.37
0.0054,0.9946	-1099.96
0.0105,0.9895	-1099.46
0.0172,0.9828	-1100.35
0.0122,0.9878	-1095.20
0.0162,0.9838	-1104.26
0.0071,0.9929	-1094.64
0.0051,0.9949	-1100.05
0.0098,0.9902	-1099.44
0.0228,0.9772	-1109.12
0.0106,0.9894	-1099.47
0.0127,0.9873	-1099.64
0.0067,0.9933	-1094.64
0.0062,0.9938	-1094.66
0.0145,0.9855	-1104.09
0.0206,0.9794	-1104.93
0.0104,0.9896	-1099.46
0.0159,0.9841	-1108.36
0.0079,0.9921	-1094.66
0.0039,0.9961	-1106.15
0.0134,0.9866	-1095.43
0.0204,0.9796	-1112.64
0.0108,0.9892	-1104.00
0.0126,0.9874	-1108.35
0.0098,0.9902	-1099.44
0.0056,0.9944	-1094.71
0.0109,0.9891	-1108.49
0.0192,0.9808	-1108.62
0.0111,0.9889	-1095.01
0.0132,0.9868	-1108.33
0.0121,0.9879	-1099.58
0.0045,0.9955	-1094.89
0.0111,0.9889	-1108.47
0.0140,0.9860	-1095.56
0.0124,0.9876	-1103.98
0.0110,0.9890	-1099.49
0.0125,0.9875	-1103.99
0.0044,0.9956	-1100.36
0.0114,0.9886	-1095.06
0.0144,0.9856	-1104.09
0.0096,0.9904	-1104.07
0.0148,0.9852	-1095.73
0.0139,0.9861	-1108.31
0.0039,0.9961	-1095.05
0.0091,0.9909	-1104.12
0.0149,0.9851	-1095.76
0.0106,0.9894	-1099.47
0.0168,0.9832	-1108.41
0.0148,0.9852	-1104.12
0.0042,0.9958	-1094.96
0.0088,0.9912	-1094.72
0.0140,0.9860	-1112.57
0.0117,0.9883	-1099.54
0.0172,0.9828	-1100.34
0.0141,0.9859	-1108.31
0.0034,0.9966	-1095.27
0.0091,0.9909	-1094.75
0.0135,0.9865	-1095.45
0.0095,0.9905	-1099.44
0.0157,0.9843	-1100.07
0.0136,0.9864	-1108.32
0.0033,0.9967	-1101.05
0.0080,0.9920	-1099.48
0.0117,0.9883	-1103.98
0.0065,0.9935	-1099.66
0.0193,0.9807	-1104.71
0.0163,0.9837	-1108.37
0.0039,0.9961	-1095.06
0.0072,0.9928	-1094.64
0.0126,0.9874	-1103.99
0.0079,0.9921	-1094.66
0.0220,0.9780	-1105.20
0.0153,0.9847	-1108.33
0.0038,0.9962	-1095.08
0.0074,0.9926	-1094.64
0.0112,0.9888	-1095.02
0.0085,0.9915	-1094.70
0.0188,0.9812	-1100.66
0.0156,0.9844	-1104.20
0.0038,0.9962	-1100.68
0.0078,0.9922	-1094.66
0.0097,0.9903	-1094.81
0.0094,0.9906	-1099.44
0.0189,0.9811	-1100.68
0.0140,0.9860	-1104.06
0.0034,0.9966	-1100.95
0.0078,0.9922	-1099.50
0.0116,0.9884	-1108.42
0.0081,0.9919	-1094.67
0.0197,0.9803	-1112.59
0.0159,0.9841	-1100.11
0.0032,0.9968	-1095.33
0.0065,0.9935	-1099.67
0.0152,0.9848	-1108.33
0.0079,0.9921	-1099.49
0.0226,0.9774	-1101.56
0.0155,0.9845	-1104.19
0.0036,0.9964	-1095.16
0.0077,0.9923	-1099.51
0.0177,0.9823	-1104.46
0.0073,0.9927	-1104.47
0.0249,0.9751	-1116.81
0.0162,0.9838	-1096.04
0.0049,0.9951	-1100.13
0.0058,0.9942	-1094.68
0.0139,0.9861	-1104.05
0.0086,0.9914	-1099.45
0.0214,0.9786	-1097.44
0.0134,0.9866	-1112.62
0.0059,0.9941	-1099.80
0.0056,0.9944	-1099.88
0.0141,0.9859	-1099.81
0.0074,0.9926	-1109.33
0.0203,0.9797	-1108.75
0.0133,0.9867	-1104.02
0.0051,0.9949	-1105.33
0.0053,0.9947	-1094.74
0.0157,0.9843	-1100.08
0.0066,0.9934	-1104.68
0.0244,0.9756	-1105.70
0.0147,0.9853	-1104.11
0.0059,0.9941	-1094.68
0.0055,0.9945	-1094.72
0.0120,0.9880	-1108.39
0.0075,0.9925	-1099.53
0.0289,0.9711	-1113.78
0.0171,0.9829	-1104.37
0.0053,0.9947	-1099.99
0.0056,0.9944	-1105.08
0.0129,0.9871	-1112.67
0.0113,0.9887	-1099.51
0.0267,0.9733	-1106.22
0.0199,0.9801	-1108.70
0.0053,0.9947	-1094.74
0.0049,0.9951	-1105.45
0.0105,0.9895	-1113.09
0.0113,0.9887	-1099.51
0.0321,0.9679	-1121.21
0.0170,0.9830	-1104.37
0.0059,0.9941	-1099.79
0.0046,0.9954	-1094.87
0.0095,0.9905	-1099.44
0.0109,0.9891	-1103.99
0.0337,0.9663	-1111.37
0.0176,0.9824	-1108.47
0.0055,0.9945	-1094.72
0.0049,0.9951	-1094.81
0.0088,0.9912	-1094.72
0.0103,0.9897	-1104.02
0.0315,0.9685	-1107.43
0.0200,0.9800	-1104.82
0.0050,0.9950	-1094.79
0.0054,0.9946	-1094.72
0.0078,0.9922	-1104.34
0.0122,0.9878	-1099.59
0.0375,0.9625	-1109.11
0.0179,0.9821	-1140.54
0.0057,0.9943	-1094.69
0.0062,0.9938	-1099.74
0.0064,0.9936	-1094.65
0.0145,0.9855	-1099.88
0.0285,0.9715	-1124.31
0.0168,0.9832	-1104.34
0.0065,0.9935	-1094.64
0.0072,0.9928	-1094.64
0.0057,0.9943	-1094.70
0.0173,0.9827	-1104.40
0.0235,0.9765	-1105.50
0.0195,0.9805	-1100.83
0.0080,0.9920	-1099.48
0.0082,0.9918	-1118.66
0.0043,0.9957	-1100.39
0.0174,0.9826	-1112.48
0.0222,0.9778	-1109.03
0.0224,0.9776	-1116.60
0.0078,0.9922	-1099.50
0.0104,0.9896	-1108.56
0.0057,0.9943	-1110.17
0.0182,0.9818	-1104.53
0.0205,0.9795	-1101.04
0.0148,0.9852	-1116.72
0.0076,0.9924	-1099.52
0.0113,0.9887	-1095.05
0.0071,0.9929	-1094.64
0.0143,0.9857	-1104.08
0.0246,0.9754	-1113.10
0.0136,0.9864	-1104.03
0.0075,0.9925	-1099.52
0.0116,0.9884	-1103.98
0.0072,0.9928	-1099.57
0.0148,0.9852	-1108.32
0.0231,0.9769	-1109.16
0.0150,0.9850	-1099.96
0.0113,0.9887	-1099.51
0.0153,0.9847	-1112.50
0.0080,0.9920	-1094.66
0.0127,0.9873	-1103.99
0.0245,0.9755	-1120.46
0.0129,0.9871	-1108.34
0.0126,0.9874	-1095.27
0.0126,0.9874	-1112.71
0.0074,0.9926	-1094.64
0.0117,0.9883	-1099.54
0.0238,0.9762	-1120.42
0.0105,0.9895	-1108.55
0.0094,0.9906	-1104.09
0.0154,0.9846	-1095.87
0.0062,0.9938	-1094.65
0.0120,0.9880	-1112.80
0.0193,0.9807	-1108.63
0.0106,0.9894	-1113.07
0.0080,0.9920	-1094.67
0.0140,0.9860	-1108.31
0.0068,0.9932	-1094.64
0.0133,0.9867	-1112.63
0.0224,0.9776	-1109.05
0.0120,0.9880	-1103.98
0.0072,0.9928	-1094.64
0.0131,0.9869	-1112.65
0.0064,0.9936	-1094.65
0.0164,0.9836	-1104.29
0.0206,0.9794	-1108.79
0.0132,0.9868	-1104.01
0.0061,0.9939	-1094.66
0.0144,0.9856	-1129.46
0.0067,0.9933	-1109.64
0.0168,0.9832	-1112.48
0.0148,0.9852	-1099.93
0.0128,0.9872	-1099.65
0.0072,0.9928	-1099.57
0.0158,0.9842	-1112.48
0.0081,0.9919	-1099.47
0.0143,0.9857	-1112.54
0.0152,0.9848	-1099.98
0.0129,0.9871	-1095.33
0.0080,0.9920	-1094.66
0.0161,0.9839	-1100.14
0.0115,0.9885	-1108.44
0.0160,0.9840	-1124.84
0.0201,0.9799	-1104.84
0.0123,0.9877	-1099.59
0.0073,0.9927	-1109.37
0.0165,0.9835	-1100.21
0.0098,0.9902	-1099.44
0.0173,0.9827	-1096.33
0.0235,0.9765	-1105.50
0.0121,0.9879	-1103.98
0.0063,0.9937	-1094.65
0.0152,0.9848	-1108.33
0.0113,0.9887	-1103.98
0.0160,0.9840	-1108.36
0.0270,0.9730	-1106.30
0.0102,0.9898	-1117.73
0.0071,0.9929	-1104.52
0.0118,0.9882	-1095.12
0.0084,0.9916	-1099.46
0.0149,0.9851	-1104.13
0.0258,0.9742	-1109.65
0.0115,0.9885	-1095.07
0.0092,0.9908	-1099.44
0.0109,0.9891	-1099.48
0.0088,0.9912	-1094.72
0.0174,0.9826	-1100.39
0.0221,0.9779	-1109.00
0.0125,0.9875	-1099.62
0.0099,0.9901	-1094.83
0.0089,0.9911	-1108.86
0.0105,0.9895	-1094.92
0.0206,0.9794	-1101.06
0.0215,0.9785	-1112.74
0.0134,0.9866	-1099.73
0.0109,0.9891	-1103.99
0.0083,0.9917	-1094.68
0.0090,0.9910	-1094.74
0.0197,0.9803	-1112.59
0.0191,0.9809	-1104.67
0.0156,0.9844	-1104.20
0.0137,0.9863	-1104.04
0.0082,0.9918	-1094.68
0.0102,0.9898	-1104.02
0.0192,0.9808	-1096.81
0.0220,0.9780	-1120.37
0.0147,0.9853	-1104.12
0.0132,0.9868	-1099.69
0.0073,0.9927	-1104.48
0.0126,0.9874	-1095.27
0.0181,0.9819	-1104.51
0.0184,0.9816	-1108.54
0.0137,0.9863	-1108.32
0.0125,0.9875	-1099.62
0.0080,0.9920	-1094.66
0.0126,0.9874	-1099.62
0.0230,0.9770	-1105.39
0.0206,0.9794	-1108.80
0.0151,0.9849	-1116.68
0.0135,0.9865	-1099.74
0.0076,0.9924	-1099.51
0.0145,0.9855	-1099.88
0.0233,0.9767	-1116.67
0.0207,0.9793	-1101.10
0.0149,0.9851	-1108.32
0.0145,0.9855	-1116.75
0.0071,0.9929	-1094.64
0.0156,0.9844	-1104.20
0.0212,0.9788	-1128.03
0.0164,0.9836	-1096.09
0.0149,0.9851	-1112.51
0.0152,0.9848	-1112.50
0.0071,0.9929	-1099.58
0.0154,0.9846	-1095.85
0.0223,0.9777	-1101.47
0.0156,0.9844	-1100.05
0.0172,0.9828	-1104.40
0.0146,0.9854	-1112.53
0.0071,0.9929	-1104.53
0.0167,0.9833	-1100.25
0.0241,0.9759	-1113.03
0.0165,0.9835	-1108.39
0.0154,0.9846	-1104.18
0.0200,0.9800	-1120.39
0.0068,0.9932	-1109.61
0.0139,0.9861	-1099.79
0.0213,0.9787	-1112.72
0.0202,0.9798	-1097.09
0.0166,0.9834	-1104.32
0.0171,0.9829	-1108.43
0.0070,0.9930	-1099.58
0.0134,0.9866	-1104.02
0.0201,0.9799	-1100.95
0.0179,0.9821	-1116.50
0.0169,0.9831	-1104.35
0.0159,0.9841	-1104.23
0.0057,0.9943	-1094.70
0.0223,0.9777	-1109.03
0.0183,0.9817	-1108.53
0.0169,0.9831	-1096.24
0.0222,0.9778	-1120.38
0.0161,0.9839	-1104.25
0.0070,0.9930	-1104.53
0.0251,0.9749	-1109.51
0.0229,0.9771	-1109.13
0.0133,0.9867	-1104.02
0.0205,0.9795	-1104.91
0.0159,0.9841	-1095.98
0.0080,0.9920	-1104.30
0.0250,0.9750	-1105.84
0.0180,0.9820	-1100.49
0.0113,0.9887	-1095.03
0.0185,0.9815	-1104.58
0.0150,0.9850	-1099.95
0.0097,0.9903	-1099.44
0.0225,0.9775	-1109.08
0.0195,0.9805	-1100.83
0.0115,0.9885	-1112.88
0.0171,0.9829	-1100.33
0.0136,0.9864	-1108.32
0.0134,0.9866	-1121.23
0.0172,0.9828	-1104.39
0.0196,0.9804	-1108.67
0.0099,0.9901	-1094.84
0.0143,0.9857	-1108.31
0.0146,0.9854	-1108.32
0.0135,0.9865	-1099.73
0.0143,0.9857	-1095.62
0.0173,0.9827	-1096.33
0.0121,0.9879	-1099.57
0.0142,0.9858	-1099.83
0.0146,0.9854	-1108.32
0.0105,0.9895	-1104.01
0.0180,0.9820	-1104.51
0.0174,0.9826	-1104.42
0.0135,0.9865	-1112.61
0.0168,0.9832	-1100.27
0.0186,0.9814	-1112.52
0.0122,0.9878	-1095.19
0.0192,0.9808	-1112.56
0.0192,0.9808	-1116.49
0.0174,0.9826	-1096.35
0.0108,0.9892	-1103.99
0.0187,0.9813	-1104.60
0.0121,0.9879	-1099.57
0.0201,0.9799	-1108.73
0.0224,0.9776	-1109.06
0.0164,0.9836	-1108.38
0.0123,0.9877	-1099.60
0.0157,0.9843	-1104.21
0.0125,0.9875	-1095.25
0.0226,0.9774	-1112.85
0.0231,0.9769	-1109.16
0.0177,0.9823	-1112.49
0.0154,0.9846	-1112.49
0.0193,0.9807	-1100.78
0.0100,0.9900	-1099.44
0.0212,0.9788	-1108.87
0.0251,0.9749	-1109.51
0.0180,0.9820	-1100.51
0.0144,0.9856	-1099.86
0.0182,0.9818	-1108.52
0.0098,0.9902	-1104.06
0.0196,0.9804	-1112.58
0.0221,0.9779	-1101.43
0.0186,0.9814	-1116.49
0.0124,0.9876	-1099.61
0.0174,0.9826	-1100.39
0.0077,0.9923	-1094.65
0.0130,0.9870	-1112.67
0.0199,0.9801	-1116.50
0.0159,0.9841	-1100.11
0.0135,0.9865	-1099.73
0.0160,0.9840	-1108.36
0.0074,0.9926	-1104.44
0.0137,0.9863	-1108.32
0.0160,0.9840	-1100.12
0.0143,0.9857	-1099.84
0.0125,0.9875	-1103.99
0.0152,0.9848	-1095.82
0.0068,0.9932	-1094.64
0.0131,0.9869	-1099.68
0.0134,0.9866	-1095.42
0.0162,0.9838	-1108.37
0.0115,0.9885	-1103.98
0.0144,0.9856	-1099.86
0.0078,0.9922	-1114.02
0.0119,0.9881	-1099.56
0.0125,0.9875	-1095.25
0.0173,0.9827	-1100.36
0.0103,0.9897	-1099.45
0.0134,0.9866	-1104.02
0.0084,0.9916	-1109.01
0.0116,0.9884	-1103.98
0.0110,0.9890	-1099.49
0.0157,0.9843	-1100.06
0.0093,0.9907	-1099.44
0.0139,0.9861	-1104.05
0.0090,0.9910	-1104.14
0.0129,0.9871	-1104.00
0.0125,0.9875	-1108.36
0.0142,0.9858	-1099.84
0.0088,0.9912	-1104.17
0.0150,0.9850	-1116.69
0.0090,0.9910	-1094.73
0.0117,0.9883	-1103.98
0.0096,0.9904	-1094.80
0.0173,0.9827	-1104.41
0.0088,0.9912	-1108.90
0.0147,0.9853	-1108.32
0.0081,0.9919	-1109.09
0.0111,0.9889	-1112.97
0.0112,0.9888	-1095.02
0.0148,0.9852	-1104.12
0.0114,0.9886	-1103.98
0.0126,0.9874	-1103.99
0.0090,0.9910	-1094.74
0.0103,0.9897	-1099.45
0.0145,0.9855	-1099.87
0.0153,0.9847	-1095.84
0.0092,0.9908	-1099.44
0.0120,0.9880	-1103.98
0.0095,0.9905	-1099.44
0.0134,0.9866	-1112.62
0.0109,0.9891	-1099.48
0.0140,0.9860	-1095.55
0.0097,0.9903	-1108.70
0.0132,0.9868	-1095.38
0.0128,0.9872	-1104.00
0.0137,0.9863	-1104.04
0.0086,0.9914	-1099.45
0.0155,0.9845	-1108.34
0.0101,0.9899	-1104.03
0.0123,0.9877	-1095.21
0.0117,0.9883	-1099.54
0.0116,0.9884	-1099.54
0.0097,0.9903	-1104.06
0.0159,0.9841	-1100.10
0.0139,0.9861	-1108.31
0.0118,0.9882	-1108.41
0.0124,0.9876	-1099.60
0.0129,0.9871	-1095.33
0.0089,0.9911	-1099.44
0.0164,0.9836	-1108.38
0.0148,0.9852	-1099.93
0.0126,0.9874	-1108.35
0.0141,0.9859	-1099.81
0.0157,0.9843	-1104.21
0.0086,0.9914	-1104.20
0.0172,0.9828	-1108.44
0.0183,0.9817	-1100.56
0.0096,0.9904	-1117.96
0.0135,0.9865	-1112.61
0.0137,0.9863	-1116.87
0.0077,0.9923	-1094.65
0.0234,0.9766	-1105.47
0.0179,0.9821	-1100.47
0.0103,0.9897	-1108.59
0.0137,0.9863	-1099.76
0.0128,0.9872	-1117.03
0.0066,0.9934	-1104.68
0.0216,0.9784	-1108.93
0.0183,0.9817	-1112.51
0.0131,0.9869	-1099.69
0.0157,0.9843	-1100.08
0.0150,0.9850	-1099.96
0.0078,0.9922	-1094.65
0.0277,0.9723	-1110.03
0.0169,0.9831	-1108.41
0.0103,0.9897	-1104.02
0.0173,0.9827	-1104.40
0.0155,0.9845	-1104.18
0.0090,0.9910	-1094.74
0.0285,0.9715	-1106.67
0.0213,0.9787	-1105.06
0.0116,0.9884	-1099.53
0.0166,0.9834	-1116.56
0.0168,0.9832	-1112.48
0.0101,0.9899	-1104.04
0.0257,0.9743	-1113.26
0.0199,0.9801	-1108.71
0.0111,0.9889	-1099.50
0.0257,0.9743	-1109.63
0.0192,0.9808	-1100.75
0.0108,0.9892	-1094.96
0.0278,0.9722	-1102.95
0.0155,0.9845	-1104.19
0.0121,0.9879	-1095.18
0.0231,0.9769	-1097.94
0.0201,0.9799	-1100.96
0.0122,0.9878	-1103.98
0.0224,0.9776	-1109.06
0.0180,0.9820	-1104.51
0.0113,0.9887	-1099.51
0.0229,0.9771	-1109.13
0.0253,0.9747	-1124.15
0.0098,0.9902	-1099.44
0.0212,0.9788	-1112.71
0.0191,0.9809	-1112.55
0.0120,0.9880	-1103.98
0.0190,0.9810	-1108.60
0.0270,0.9730	-1106.29
0.0118,0.9882	-1103.98
0.0208,0.9792	-1108.83
0.0165,0.9835	-1104.30
0.0113,0.9887	-1099.51
0.0145,0.9855	-1104.09
0.0235,0.9765	-1109.22
0.0099,0.9901	-1099.44
0.0162,0.9838	-1096.06
0.0140,0.9860	-1095.54
0.0135,0.9865	-1099.73
0.0145,0.9855	-1116.75
0.0272,0.9728	-1117.07
0.0115,0.9885	-1099.52
0.0146,0.9854	-1108.32
0.0141,0.9859	-1099.82
0.0110,0.9890	-1103.99
0.0121,0.9879	-1108.38
0.0225,0.9775	-1116.61
0.0111,0.9889	-1099.50
0.0159,0.9841	-1104.23
0.0147,0.9853	-1099.91
0.0111,0.9889	-1108.47
0.0119,0.9881	-1095.15
0.0161,0.9839	-1100.14
0.0076,0.9924	-1099.52
0.0135,0.9865	-1116.90
0.0137,0.9863	-1112.59
0.0106,0.9894	-1104.00
0.0136,0.9864	-1112.60
0.0174,0.9826	-1100.39
0.0071,0.9929	-1099.58
0.0163,0.9837	-1104.28
0.0124,0.9876	-1103.99
0.0138,0.9862	-1108.31
0.0119,0.9881	-1108.40
0.0163,0.9837	-1100.17
0.0070,0.9930	-1099.58
