#isoforms=['ENSG00000110080.SE.2.A.up_ENSG00000110080.SE.2.A.SE1_ENSG00000110080.SE.2.A.dn','ENSG00000110080.SE.2.B.up_ENSG00000110080.SE.2.B.dn']	exon_lens=('ENSG00000110080.SE.2.A.up',61),('ENSG00000110080.SE.2.A.SE1',96),('ENSG00000110080.SE.2.A.dn',190),('ENSG00000110080.SE.2.B.up',61),('ENSG00000110080.SE.2.B.dn',190)	iters=5000	burn_in=500	lag=10	percent_accept=94.87	proposal_type=drift	counts=(0,0):115,(1,0):186,(1,1):244	assigned_counts=0:429,1:1	chrom=chr11	strand=+	mRNA_starts=126407574,126407574	mRNA_ends=126408496,126408496
sampled_psi	log_score
0.9475,0.0525	-2498.85
0.9503,0.0497	-2492.77
0.9733,0.0267	-2477.79
0.9145,0.0855	-2507.86
0.9764,0.0236	-2470.17
0.9621,0.0379	-2485.49
0.9545,0.0455	-2498.48
0.9595,0.0405	-2466.76
0.9722,0.0278	-2488.54
0.9178,0.0822	-2533.93
0.9738,0.0262	-2474.14
0.9637,0.0363	-2501.75
0.9494,0.0506	-2498.72
0.9646,0.0354	-2481.99
0.9726,0.0274	-2470.70
0.9176,0.0824	-2524.29
0.9764,0.0236	-2481.34
0.9684,0.0316	-2505.61
0.9589,0.0411	-2501.55
0.9628,0.0372	-2485.43
0.9639,0.0361	-2485.35
0.9336,0.0664	-2502.89
0.9767,0.0233	-2488.81
0.9688,0.0312	-2474.75
0.9571,0.0429	-2489.10
0.9545,0.0455	-2486.30
0.9625,0.0375	-2485.46
0.9160,0.0840	-2533.93
0.9797,0.0203	-2469.80
0.9643,0.0357	-2491.91
0.9588,0.0412	-2485.81
0.9453,0.0547	-2499.02
0.9599,0.0401	-2495.22
0.9281,0.0719	-2518.88
0.9832,0.0168	-2465.45
0.9634,0.0366	-2478.85
0.9625,0.0375	-2482.21
0.9490,0.0510	-2504.60
0.9613,0.0387	-2504.84
0.9134,0.0866	-2524.52
0.9847,0.0153	-2456.97
0.9677,0.0323	-2478.30
0.9664,0.0336	-2488.54
0.9554,0.0446	-2495.39
0.9585,0.0415	-2479.56
0.8974,0.1026	-2545.41
0.9784,0.0216	-2462.31
0.9698,0.0302	-2474.61
0.9691,0.0309	-2488.50
0.9616,0.0384	-2508.08
0.9591,0.0409	-2507.86
0.9142,0.0858	-2526.84
0.9786,0.0214	-2469.91
0.9700,0.0300	-2471.12
0.9685,0.0315	-2481.65
0.9500,0.0500	-2507.52
0.9629,0.0371	-2488.68
0.9366,0.0634	-2516.04
0.9831,0.0169	-2485.78
0.9703,0.0297	-2485.01
0.9706,0.0294	-2471.02
0.9371,0.0629	-2540.35
0.9578,0.0422	-2495.29
0.9344,0.0656	-2505.46
0.9833,0.0167	-2461.36
0.9680,0.0320	-2502.14
0.9753,0.0247	-2477.67
0.9285,0.0715	-2508.61
0.9493,0.0507	-2501.66
0.9523,0.0477	-2480.61
0.9834,0.0166	-2461.35
0.9652,0.0348	-2485.25
0.9754,0.0246	-2496.06
0.9192,0.0808	-2509.63
0.9344,0.0656	-2524.05
0.9471,0.0529	-2490.22
0.9848,0.0152	-2469.46
0.9684,0.0316	-2515.89
0.9745,0.0255	-2470.43
0.9241,0.0759	-2521.55
0.9356,0.0644	-2491.96
0.9611,0.0389	-2492.00
0.9854,0.0146	-2461.02
0.9728,0.0272	-2502.86
0.9803,0.0197	-2473.65
0.9406,0.0594	-2524.30
0.9376,0.0624	-2513.31
0.9640,0.0360	-2485.34
0.9845,0.0155	-2473.62
0.9717,0.0283	-2492.06
0.9817,0.0183	-2461.66
0.9452,0.0548	-2513.27
0.9402,0.0598	-2510.51
0.9670,0.0330	-2485.14
0.9822,0.0178	-2469.59
0.9704,0.0296	-2481.52
0.9859,0.0141	-2482.18
0.9386,0.0614	-2505.11
0.9421,0.0579	-2521.61
0.9700,0.0300	-2481.54
0.9790,0.0210	-2469.87
0.9657,0.0343	-2495.23
0.9848,0.0152	-2477.80
0.9426,0.0574	-2499.25
0.9475,0.0525	-2498.85
0.9694,0.0306	-2481.59
0.9748,0.0252	-2488.66
0.9657,0.0343	-2475.21
0.9868,0.0132	-2469.44
0.9485,0.0515	-2492.95
0.9354,0.0646	-2516.06
0.9736,0.0264	-2495.81
0.9728,0.0272	-2484.98
0.9631,0.0369	-2482.14
0.9855,0.0145	-2461.00
0.9462,0.0538	-2530.49
0.9368,0.0632	-2505.25
0.9777,0.0223	-2466.23
0.9729,0.0271	-2481.40
0.9596,0.0404	-2492.06
0.9858,0.0142	-2473.68
0.9397,0.0603	-2510.52
0.9161,0.0839	-2512.41
0.9793,0.0207	-2458.26
0.9728,0.0272	-2470.67
0.9642,0.0358	-2495.20
0.9814,0.0186	-2477.58
0.9303,0.0697	-2531.77
0.8982,0.1018	-2538.87
0.9765,0.0235	-2473.89
0.9671,0.0329	-2474.99
0.9594,0.0406	-2482.59
0.9835,0.0165	-2453.15
0.9298,0.0702	-2523.99
0.9179,0.0821	-2519.44
0.9745,0.0255	-2477.71
0.9669,0.0331	-2488.52
0.9524,0.0476	-2501.56
0.9836,0.0164	-2461.31
0.9405,0.0595	-2524.30
0.9200,0.0800	-2524.18
0.9679,0.0321	-2478.29
0.9647,0.0353	-2481.98
0.9636,0.0364	-2488.64
0.9796,0.0204	-2481.42
0.9505,0.0495	-2498.66
0.9012,0.0988	-2527.71
0.9629,0.0371	-2491.94
0.9698,0.0302	-2478.09
0.9664,0.0336	-2481.81
0.9772,0.0228	-2477.59
0.9486,0.0514	-2507.52
0.9036,0.0964	-2529.76
0.9711,0.0289	-2467.42
0.9639,0.0361	-2488.63
0.9721,0.0279	-2509.84
0.9736,0.0264	-2481.38
0.9355,0.0645	-2516.05
0.9009,0.0991	-2545.40
0.9739,0.0261	-2481.37
0.9590,0.0410	-2492.09
0.9745,0.0255	-2470.43
0.9690,0.0310	-2478.17
0.9413,0.0587	-2502.15
0.8973,0.1027	-2517.24
0.9789,0.0211	-2466.04
0.9484,0.0516	-2495.87
0.9744,0.0256	-2474.07
0.9781,0.0219	-2477.57
0.9410,0.0590	-2513.25
0.9015,0.0985	-2523.26
0.9803,0.0197	-2477.56
0.9483,0.0517	-2498.79
0.9732,0.0268	-2502.94
0.9790,0.0210	-2477.55
0.9463,0.0537	-2490.33
0.8972,0.1028	-2543.25
0.9789,0.0211	-2477.56
0.9558,0.0442	-2489.22
0.9777,0.0223	-2485.14
0.9808,0.0192	-2481.50
0.9410,0.0590	-2513.25
0.8784,0.1216	-2538.23
0.9779,0.0221	-2477.57
0.9554,0.0446	-2486.19
0.9798,0.0202	-2469.79
0.9771,0.0229	-2470.09
0.9368,0.0632	-2524.12
0.8404,0.1596	-2573.39
0.9790,0.0210	-2473.71
0.9627,0.0373	-2488.69
0.9812,0.0188	-2469.67
0.9801,0.0199	-2465.87
0.9416,0.0584	-2504.91
0.8258,0.1742	-2577.27
0.9755,0.0245	-2470.29
0.9666,0.0334	-2478.43
0.9783,0.0217	-2481.37
0.9815,0.0185	-2473.61
0.9506,0.0494	-2480.91
0.8718,0.1282	-2554.28
0.9711,0.0289	-2488.51
0.9691,0.0309	-2474.71
0.9839,0.0161	-2469.49
0.9770,0.0230	-2477.59
0.9549,0.0451	-2489.31
0.8898,0.1102	-2539.31
0.9715,0.0285	-2481.46
0.9740,0.0260	-2481.37
0.9841,0.0159	-2477.73
0.9719,0.0281	-2481.44
0.9648,0.0352	-2505.14
0.9060,0.0940	-2522.80
0.9629,0.0371	-2478.91
0.9670,0.0330	-2505.41
0.9843,0.0157	-2461.20
0.9735,0.0265	-2459.76
0.9686,0.0314	-2491.93
0.8884,0.1116	-2537.33
0.9698,0.0302	-2491.97
0.9651,0.0349	-2488.58
0.9828,0.0172	-2481.69
0.9715,0.0285	-2474.40
0.9694,0.0306	-2485.04
0.8904,0.1096	-2551.84
0.9775,0.0225	-2466.26
0.9622,0.0378	-2488.72
0.9823,0.0177	-2469.58
0.9731,0.0269	-2484.98
0.9656,0.0344	-2488.56
0.8722,0.1278	-2552.34
0.9761,0.0239	-2466.51
0.9610,0.0390	-2485.59
0.9848,0.0152	-2456.94
0.9676,0.0324	-2502.10
0.9606,0.0394	-2517.57
0.8840,0.1160	-2549.88
0.9760,0.0240	-2470.23
0.9551,0.0449	-2486.23
0.9842,0.0158	-2461.21
0.9699,0.0301	-2491.97
0.9560,0.0440	-2498.44
0.8818,0.1182	-2535.88
0.9774,0.0226	-2466.29
0.9499,0.0501	-2492.81
0.9817,0.0183	-2481.57
0.9614,0.0386	-2482.34
0.9582,0.0418	-2492.14
0.8916,0.1084	-2528.66
0.9757,0.0243	-2503.49
0.9457,0.0543	-2504.70
0.9812,0.0188	-2461.75
0.9657,0.0343	-2475.21
0.9543,0.0457	-2495.44
0.8817,0.1183	-2543.93
0.9676,0.0324	-2491.91
0.9532,0.0468	-2492.50
0.9842,0.0158	-2461.22
0.9657,0.0343	-2498.57
0.9560,0.0440	-2483.04
0.8620,0.1380	-2547.50
0.9643,0.0357	-2505.09
0.9582,0.0418	-2485.87
0.9871,0.0129	-2456.42
0.9614,0.0386	-2501.63
0.9618,0.0382	-2504.87
0.8763,0.1237	-2542.36
0.9661,0.0339	-2491.90
0.9616,0.0384	-2501.64
0.9883,0.0117	-2469.48
0.9629,0.0371	-2495.19
0.9691,0.0309	-2474.71
0.8810,0.1190	-2537.97
0.9687,0.0313	-2481.64
0.9532,0.0468	-2504.56
0.9871,0.0129	-2482.46
0.9663,0.0337	-2468.40
0.9695,0.0305	-2485.04
0.8747,0.1253	-2552.22
0.9696,0.0304	-2481.57
0.9473,0.0527	-2504.64
0.9846,0.0154	-2473.62
0.9591,0.0409	-2488.93
0.9668,0.0332	-2475.04
0.8779,0.1221	-2528.42
0.9720,0.0280	-2477.89
0.9495,0.0505	-2507.52
0.9871,0.0129	-2456.44
0.9546,0.0454	-2504.57
0.9735,0.0265	-2470.57
0.8879,0.1121	-2539.44
0.9714,0.0286	-2495.57
0.9406,0.0594	-2499.45
0.9855,0.0145	-2456.78
0.9507,0.0493	-2519.36
0.9758,0.0242	-2481.34
0.8903,0.1097	-2518.35
0.9585,0.0415	-2495.26
0.9423,0.0577	-2504.87
0.9889,0.0111	-2478.50
0.9446,0.0554	-2501.92
0.9732,0.0268	-2488.57
0.9226,0.0774	-2514.18
0.9523,0.0477	-2492.58
0.9527,0.0473	-2489.54
0.9867,0.0133	-2469.44
0.9526,0.0474	-2495.55
0.9771,0.0229	-2470.08
0.9088,0.0912	-2513.35
0.9546,0.0454	-2477.15
0.9494,0.0506	-2478.19
0.9872,0.0128	-2465.10
0.9694,0.0306	-2488.50
0.9805,0.0195	-2469.72
0.9095,0.0905	-2538.63
0.9621,0.0379	-2485.49
0.9537,0.0463	-2480.35
0.9867,0.0133	-2469.44
0.9670,0.0330	-2475.01
0.9763,0.0237	-2477.62
0.9000,0.1000	-2527.82
0.9584,0.0416	-2495.26
0.9503,0.0497	-2504.57
0.9873,0.0127	-2469.44
0.9630,0.0370	-2482.16
0.9729,0.0271	-2477.82
0.8931,0.1069	-2539.11
0.9513,0.0487	-2486.73
0.9478,0.0522	-2516.23
0.9856,0.0144	-2473.67
0.9605,0.0395	-2479.25
0.9695,0.0305	-2471.20
0.9027,0.0973	-2523.14
0.9438,0.0562	-2504.79
0.9333,0.0667	-2516.11
0.9810,0.0190	-2489.39
0.9587,0.0413	-2488.97
0.9690,0.0310	-2485.05
0.9092,0.0908	-2538.63
0.9495,0.0505	-2492.85
0.9352,0.0648	-2516.06
0.9829,0.0171	-2457.39
0.9567,0.0433	-2498.42
0.9672,0.0328	-2502.06
0.9164,0.0836	-2541.11
0.9520,0.0480	-2504.56
0.9209,0.0791	-2519.24
0.9845,0.0155	-2469.47
0.9532,0.0468	-2495.51
0.9634,0.0366	-2498.47
0.9100,0.0900	-2529.38
0.9556,0.0444	-2495.38
0.9195,0.0805	-2516.90
0.9822,0.0178	-2473.60
0.9510,0.0490	-2498.63
0.9670,0.0330	-2488.52
0.9179,0.0821	-2507.38
0.9560,0.0440	-2492.28
0.9048,0.0952	-2531.92
0.9841,0.0159	-2465.36
0.9580,0.0420	-2489.02
0.9614,0.0386	-2498.41
0.9384,0.0616	-2505.12
0.9564,0.0436	-2473.72
0.9034,0.0966	-2538.71
0.9889,0.0111	-2474.00
0.9534,0.0466	-2504.56
0.9634,0.0366	-2478.84
0.9364,0.0636	-2516.04
0.9659,0.0341	-2488.55
0.9137,0.0863	-2515.07
0.9881,0.0119	-2473.90
0.9616,0.0384	-2475.88
0.9704,0.0296	-2481.52
0.9452,0.0548	-2501.87
0.9631,0.0369	-2504.98
0.9209,0.0791	-2514.33
0.9851,0.0149	-2465.26
0.9669,0.0331	-2478.40
0.9656,0.0344	-2488.56
0.9504,0.0496	-2498.67
0.9641,0.0359	-2485.33
0.9110,0.0890	-2536.31
0.9854,0.0146	-2469.44
0.9712,0.0288	-2484.99
0.9716,0.0284	-2506.18
0.9575,0.0425	-2498.41
0.9676,0.0324	-2481.72
0.9280,0.0720	-2508.66
0.9877,0.0123	-2469.46
0.9717,0.0283	-2488.52
0.9703,0.0297	-2471.07
0.9663,0.0337	-2491.90
0.9647,0.0353	-2511.75
0.9253,0.0747	-2503.90
0.9862,0.0138	-2460.89
0.9697,0.0303	-2488.50
0.9652,0.0348	-2485.26
0.9708,0.0292	-2478.00
0.9632,0.0368	-2501.72
0.9232,0.0768	-2543.97
0.9867,0.0133	-2456.52
0.9724,0.0276	-2474.29
0.9609,0.0391	-2485.60
0.9774,0.0226	-2481.35
0.9641,0.0359	-2485.33
0.9306,0.0694	-2516.21
0.9867,0.0133	-2473.74
0.9727,0.0273	-2484.98
0.9609,0.0391	-2514.41
0.9793,0.0207	-2477.55
0.9648,0.0352	-2475.34
0.9439,0.0561	-2490.66
0.9887,0.0113	-2469.51
0.9723,0.0277	-2470.76
0.9637,0.0363	-2482.09
0.9782,0.0218	-2488.97
0.9752,0.0248	-2488.69
0.9507,0.0493	-2513.45
0.9858,0.0142	-2465.19
0.9735,0.0265	-2492.19
0.9620,0.0380	-2488.73
0.9760,0.0240	-2485.05
0.9824,0.0176	-2473.60
0.9568,0.0432	-2498.42
0.9835,0.0165	-2473.60
0.9754,0.0246	-2488.70
0.9653,0.0347	-2485.25
0.9719,0.0281	-2481.44
0.9835,0.0165	-2465.42
0.9539,0.0461	-2519.71
0.9876,0.0124	-2465.08
0.9796,0.0204	-2485.30
0.9714,0.0286	-2495.57
0.9712,0.0288	-2474.44
0.9808,0.0192	-2485.44
0.9437,0.0563	-2493.52
0.9848,0.0152	-2477.80
0.9807,0.0193	-2485.42
0.9719,0.0281	-2481.44
0.9746,0.0254	-2470.41
0.9791,0.0209	-2477.55
0.9418,0.0582	-2521.60
0.9842,0.0158	-2477.74
0.9795,0.0205	-2465.95
0.9684,0.0316	-2488.50
0.9753,0.0247	-2459.28
0.9770,0.0230	-2496.35
0.9520,0.0480	-2486.63
0.9796,0.0204	-2462.06
0.9803,0.0197	-2493.19
0.9740,0.0260	-2481.37
0.9764,0.0236	-2473.90
0.9753,0.0247	-2477.67
0.9521,0.0479	-2504.56
0.9776,0.0224	-2473.80
0.9791,0.0209	-2462.17
0.9688,0.0312	-2488.50
0.9750,0.0250	-2474.02
0.9675,0.0325	-2471.54
0.9613,0.0387	-2488.78
0.9778,0.0222	-2473.79
0.9764,0.0236	-2492.50
0.9716,0.0284	-2477.92
0.9759,0.0241	-2488.74
0.9671,0.0329	-2474.99
0.9624,0.0376	-2485.47
0.9737,0.0263	-2463.31
0.9696,0.0304	-2478.11
0.9678,0.0322	-2488.51
0.9750,0.0250	-2499.66
0.9594,0.0406	-2492.07
0.9670,0.0330	-2498.65
0.9708,0.0292	-2488.51
0.9618,0.0382	-2466.16
0.9635,0.0365	-2491.92
0.9762,0.0238	-2473.91
0.9633,0.0367	-2504.99
0.9709,0.0291	-2488.51
0.9735,0.0265	-2477.78
0.9575,0.0425	-2501.52
0.9653,0.0347	-2485.25
0.9751,0.0249	-2488.68
0.9652,0.0348	-2488.57
0.9739,0.0261	-2484.99
0.9691,0.0309	-2488.50
0.9505,0.0495	-2483.89
0.9682,0.0318	-2491.92
0.9764,0.0236	-2470.17
0.9625,0.0375	-2495.19
0.9716,0.0284	-2481.46
0.9723,0.0277	-2481.43
0.9602,0.0398	-2488.85
0.9696,0.0304	-2481.57
0.9763,0.0237	-2481.34
0.9528,0.0472	-2477.51
0.9644,0.0356	-2478.71
0.9735,0.0265	-2477.78
0.9547,0.0453	-2507.62
0.9612,0.0388	-2485.58
0.9721,0.0279	-2488.53
0.9557,0.0443	-2495.37
0.9608,0.0392	-2482.41
0.9651,0.0349	-2485.26
0.9550,0.0450	-2504.57
0.9577,0.0423	-2498.41
0.9683,0.0317	-2485.08
0.9626,0.0374	-2508.18
0.9634,0.0366	-2482.11
0.9704,0.0296	-2481.52
0.9542,0.0458	-2489.38
0.9621,0.0379	-2485.49
0.9644,0.0356	-2472.11
0.9695,0.0305	-2481.58
0.9605,0.0395	-2488.83
0.9680,0.0320	-2481.68
0.9616,0.0384	-2485.54
0.9681,0.0319	-2478.26
0.9679,0.0321	-2478.29
0.9742,0.0258	-2466.84
0.9659,0.0341	-2471.83
0.9702,0.0298	-2491.98
0.9640,0.0360	-2488.62
0.9763,0.0237	-2488.78
0.9662,0.0338	-2498.60
0.9674,0.0326	-2474.95
0.9662,0.0338	-2478.48
0.9674,0.0326	-2505.46
0.9644,0.0356	-2495.21
0.9714,0.0286	-2474.42
0.9703,0.0297	-2478.04
0.9572,0.0428	-2489.09
0.9638,0.0362	-2485.35
0.9704,0.0296	-2485.01
0.9610,0.0390	-2479.18
0.9737,0.0263	-2488.60
0.9765,0.0235	-2481.34
0.9435,0.0565	-2518.88
0.9614,0.0386	-2482.34
0.9685,0.0315	-2495.35
0.9629,0.0371	-2514.73
0.9737,0.0263	-2495.82
0.9763,0.0237	-2481.34
0.9382,0.0618	-2505.14
0.9697,0.0303	-2485.03
0.9715,0.0285	-2477.93
0.9527,0.0473	-2492.55
0.9764,0.0236	-2488.79
0.9783,0.0217	-2466.13
0.9380,0.0620	-2502.44
0.9726,0.0274	-2474.28
0.9747,0.0253	-2481.35
0.9586,0.0414	-2485.83
0.9788,0.0212	-2489.05
0.9773,0.0227	-2470.07
0.9339,0.0661	-2516.09
0.9765,0.0235	-2462.71
0.9739,0.0261	-2484.99
0.9687,0.0313	-2491.93
0.9787,0.0213	-2485.21
0.9773,0.0227	-2477.59
0.9263,0.0737	-2513.89
0.9791,0.0209	-2473.71
0.9763,0.0237	-2470.19
0.9671,0.0329	-2478.38
0.9792,0.0208	-2473.70
0.9790,0.0210	-2477.55
0.9332,0.0668	-2502.93
0.9747,0.0253	-2477.70
0.9717,0.0283	-2474.38
0.9679,0.0321	-2478.29
0.9805,0.0195	-2465.80
0.9793,0.0207	-2485.27
0.9366,0.0634	-2510.65
0.9786,0.0214	-2477.56
0.9754,0.0246	-2477.66
0.9706,0.0294	-2481.51
0.9824,0.0176	-2477.62
0.9760,0.0240	-2492.45
0.9332,0.0668	-2526.66
0.9786,0.0214	-2477.56
0.9780,0.0220	-2458.59
0.9705,0.0295	-2485.01
0.9812,0.0188	-2481.53
0.9812,0.0188	-2485.49
0.9294,0.0706	-2521.41
0.9777,0.0223	-2466.23
0.9746,0.0254	-2474.06
0.9741,0.0259	-2488.62
0.9758,0.0242	-2481.34
0.9794,0.0206	-2481.41
0.9345,0.0655	-2492.16
0.9818,0.0182	-2465.63
0.9706,0.0294	-2474.51
0.9746,0.0254	-2470.41
0.9688,0.0312	-2498.80
0.9796,0.0204	-2477.55
0.9255,0.0745	-2511.43
0.9806,0.0194	-2477.56
0.9717,0.0283	-2470.83
0.9698,0.0302	-2478.09
0.9711,0.0289	-2474.46
0.9836,0.0164	-2469.51
0.9426,0.0574	-2510.45
0.9839,0.0161	-2473.60
0.9758,0.0242	-2462.85
0.9646,0.0354	-2478.68
0.9722,0.0278	-2492.09
0.9767,0.0233	-2466.39
0.9401,0.0599	-2496.74
0.9857,0.0143	-2473.67
0.9739,0.0261	-2488.61
0.9684,0.0316	-2495.35
0.9707,0.0293	-2485.00
0.9755,0.0245	-2466.61
0.9438,0.0562	-2504.79
0.9849,0.0151	-2486.17
0.9778,0.0222	-2477.57
0.9713,0.0287	-2481.47
0.9647,0.0353	-2485.28
0.9740,0.0260	-2492.23
0.9369,0.0631	-2516.03
0.9855,0.0145	-2486.30
0.9760,0.0240	-2481.34
0.9764,0.0236	-2492.51
0.9568,0.0432	-2470.54
0.9717,0.0283	-2481.45
0.9354,0.0646	-2508.04
0.9901,0.0099	-2483.42
0.9777,0.0223	-2488.91
0.9793,0.0207	-2469.84
0.9597,0.0403	-2498.40
0.9720,0.0280	-2481.44
0.9372,0.0628	-2491.70
0.9872,0.0128	-2478.14
0.9820,0.0180	-2473.60
0.9795,0.0205	-2481.42
0.9616,0.0384	-2495.20
0.9649,0.0351	-2481.96
0.9435,0.0565	-2490.73
0.9879,0.0121	-2465.06
0.9878,0.0122	-2460.67
0.9793,0.0207	-2458.28
0.9606,0.0394	-2485.63
0.9591,0.0409	-2485.78
0.9481,0.0519	-2504.62
0.9870,0.0130	-2460.78
0.9883,0.0117	-2482.80
0.9783,0.0217	-2473.76
0.9591,0.0409	-2498.40
0.9591,0.0409	-2485.77
0.9608,0.0392	-2485.61
0.9828,0.0172	-2469.55
0.9865,0.0135	-2473.73
0.9783,0.0217	-2469.94
0.9547,0.0453	-2486.28
0.9650,0.0350	-2485.26
0.9586,0.0414	-2498.40
0.9787,0.0213	-2469.91
0.9897,0.0103	-2460.45
0.9773,0.0227	-2470.06
0.9578,0.0422	-2501.53
0.9596,0.0404	-2488.90
0.9544,0.0456	-2504.57
0.9809,0.0191	-2473.63
0.9895,0.0105	-2460.47
0.9781,0.0219	-2469.96
0.9583,0.0417	-2501.54
0.9566,0.0434	-2482.96
0.9538,0.0462	-2492.45
0.9779,0.0221	-2466.19
0.9873,0.0127	-2469.45
0.9720,0.0280	-2474.34
0.9633,0.0367	-2482.13
0.9545,0.0455	-2507.61
0.9315,0.0685	-2513.56
0.9819,0.0181	-2461.63
0.9808,0.0192	-2481.50
0.9712,0.0288	-2481.47
0.9616,0.0384	-2485.54
0.9557,0.0443	-2476.94
0.9215,0.0785	-2511.81
0.9858,0.0142	-2465.19
0.9772,0.0228	-2488.87
0.9735,0.0265	-2477.78
0.9645,0.0355	-2498.51
0.9652,0.0348	-2485.25
0.9117,0.0883	-2531.63
0.9832,0.0168	-2473.60
0.9809,0.0191	-2465.75
0.9791,0.0209	-2477.55
0.9696,0.0304	-2512.74
0.9588,0.0412	-2488.96
0.9193,0.0807	-2514.48
0.9794,0.0206	-2465.96
0.9814,0.0186	-2461.71
0.9817,0.0183	-2481.58
0.9663,0.0337	-2485.19
0.9703,0.0297	-2481.53
0.9171,0.0829	-2524.31
0.9793,0.0207	-2489.13
0.9825,0.0175	-2465.54
0.9779,0.0221	-2477.57
0.9608,0.0392	-2492.01
0.9585,0.0415	-2498.40
0.9185,0.0815	-2519.40
0.9760,0.0240	-2466.52
0.9820,0.0180	-2477.60
0.9739,0.0261	-2484.99
0.9524,0.0476	-2507.55
0.9678,0.0322	-2512.33
0.9301,0.0699	-2518.81
0.9790,0.0210	-2469.87
0.9786,0.0214	-2477.56
0.9676,0.0324	-2478.32
0.9380,0.0620	-2513.30
0.9573,0.0427	-2492.20
0.9294,0.0706	-2516.26
0.9786,0.0214	-2469.91
0.9820,0.0180	-2477.60
0.9694,0.0306	-2481.59
0.9291,0.0709	-2498.26
0.9498,0.0502	-2501.64
0.9353,0.0647	-2510.72
0.9802,0.0198	-2489.26
0.9845,0.0155	-2469.47
0.9698,0.0302	-2474.62
0.9250,0.0750	-2511.47
0.9491,0.0509	-2489.97
0.9440,0.0560	-2524.55
0.9853,0.0147	-2465.24
0.9891,0.0109	-2465.02
0.9693,0.0307	-2488.50
0.9153,0.0847	-2541.07
0.9429,0.0571	-2518.86
0.9434,0.0566	-2507.62
0.9808,0.0192	-2481.50
0.9868,0.0132	-2473.75
0.9690,0.0310	-2488.50
0.9139,0.0861	-2517.40
0.9470,0.0530	-2501.77
0.9288,0.0712	-2534.26
0.9826,0.0174	-2477.63
0.9892,0.0108	-2455.98
0.9758,0.0242	-2481.34
0.9287,0.0713	-2516.29
0.9504,0.0496	-2501.62
0.9291,0.0709	-2518.84
0.9825,0.0175	-2477.62
0.9871,0.0129	-2460.76
0.9813,0.0187	-2469.65
0.9284,0.0716	-2513.74
0.9301,0.0699	-2498.10
0.9362,0.0638	-2507.98
0.9846,0.0154	-2477.78
0.9862,0.0138	-2456.62
0.9815,0.0185	-2489.50
0.9177,0.0823	-2521.87
0.9386,0.0614	-2526.93
0.9344,0.0656	-2505.45
0.9811,0.0189	-2469.67
0.9881,0.0119	-2469.47
0.9788,0.0212	-2462.23
0.9171,0.0829	-2526.71
0.9428,0.0572	-2504.84
0.9342,0.0658	-2500.16
0.9814,0.0186	-2477.58
0.9856,0.0144	-2465.21
0.9761,0.0239	-2466.49
0.9152,0.0848	-2507.76
0.9531,0.0469	-2474.44
0.9361,0.0639	-2521.41
0.9773,0.0227	-2473.83
0.9868,0.0132	-2465.12
0.9746,0.0254	-2474.06
0.9193,0.0807	-2519.34
0.9469,0.0531	-2498.89
0.9355,0.0645	-2510.71
0.9739,0.0261	-2492.22
0.9846,0.0154	-2465.30
0.9741,0.0259	-2484.99
0.9316,0.0684	-2508.33
0.9394,0.0606	-2502.31
0.9411,0.0589	-2507.71
0.9764,0.0236	-2485.06
0.9833,0.0167	-2465.45
0.9698,0.0302	-2495.44
0.9182,0.0818	-2514.59
0.9429,0.0571	-2499.23
0.9379,0.0621	-2507.88
0.9780,0.0220	-2473.77
0.9819,0.0181	-2461.62
0.9650,0.0350	-2475.31
0.9147,0.0853	-2533.93
0.9395,0.0605	-2491.33
0.9322,0.0678	-2500.42
0.9772,0.0228	-2470.07
0.9793,0.0207	-2469.84
0.9681,0.0319	-2474.85
0.9209,0.0791	-2514.33
0.9501,0.0499	-2492.79
0.9324,0.0676	-2505.64
0.9772,0.0228	-2481.35
0.9796,0.0204	-2473.68
0.9616,0.0384	-2491.98
0.9291,0.0709	-2516.27
0.9401,0.0599	-2510.51
0.9467,0.0533	-2490.28
0.9812,0.0188	-2457.80
0.9821,0.0179	-2461.58
0.9629,0.0371	-2488.68
0.9435,0.0565	-2490.73
0.9421,0.0579	-2513.25
0.9477,0.0523	-2504.63
0.9835,0.0165	-2469.51
0.9818,0.0182	-2473.61
0.9667,0.0333	-2488.53
0.9463,0.0537	-2498.94
0.9406,0.0594	-2510.50
0.9483,0.0517	-2498.80
0.9809,0.0191	-2461.81
0.9853,0.0147	-2482.05
0.9639,0.0361	-2482.06
0.9482,0.0518	-2495.89
0.9597,0.0403	-2507.91
0.9541,0.0459	-2492.42
0.9775,0.0225	-2515.30
0.9827,0.0173	-2469.55
0.9615,0.0385	-2482.33
0.9450,0.0550	-2499.05
0.9609,0.0391	-2495.21
0.9577,0.0423	-2514.00
0.9824,0.0176	-2461.54
0.9809,0.0191	-2461.81
0.9468,0.0532	-2510.42
0.9318,0.0682	-2497.85
0.9600,0.0400	-2498.40
0.9615,0.0385	-2488.76
0.9847,0.0153	-2486.12
0.9858,0.0142	-2477.91
0.9477,0.0523	-2498.83
0.9293,0.0707	-2505.95
0.9645,0.0355	-2482.00
0.9508,0.0492	-2492.72
0.9870,0.0130	-2469.44
0.9890,0.0110	-2460.52
0.9532,0.0468	-2492.50
0.9404,0.0596	-2485.68
0.9729,0.0271	-2488.56
0.9509,0.0491	-2495.67
0.9828,0.0172	-2461.46
0.9883,0.0117	-2465.04
0.9537,0.0463	-2492.46
0.9539,0.0461	-2486.38
0.9719,0.0281	-2488.53
0.9488,0.0512	-2507.52
0.9858,0.0142	-2477.91
0.9869,0.0131	-2456.47
0.9644,0.0356	-2472.12
0.9561,0.0439	-2498.43
0.9750,0.0250	-2481.35
0.9468,0.0532	-2501.78
0.9857,0.0143	-2486.37
0.9847,0.0153	-2456.97
0.9699,0.0301	-2481.55
0.9690,0.0310	-2474.73
0.9771,0.0229	-2466.33
0.9510,0.0490	-2495.66
0.9858,0.0142	-2469.44
0.9829,0.0171	-2477.65
0.9790,0.0210	-2473.71
0.9638,0.0362	-2475.51
0.9742,0.0258	-2466.83
0.9574,0.0426	-2492.19
0.9846,0.0154	-2473.62
0.9847,0.0153	-2465.30
0.9810,0.0190	-2465.73
0.9605,0.0395	-2498.40
0.9790,0.0210	-2473.71
0.9631,0.0369	-2491.93
0.9832,0.0168	-2461.39
0.9841,0.0159	-2469.48
0.9769,0.0231	-2470.11
0.9555,0.0445	-2501.52
0.9736,0.0264	-2492.20
0.9590,0.0410	-2479.49
0.9876,0.0124	-2465.08
0.9825,0.0175	-2481.66
0.9852,0.0148	-2477.84
0.9587,0.0413	-2495.25
0.9756,0.0244	-2470.28
0.9533,0.0467	-2483.45
0.9869,0.0131	-2460.79
0.9794,0.0206	-2477.55
0.9869,0.0131	-2456.46
0.9609,0.0391	-2498.41
0.9730,0.0270	-2474.23
0.9670,0.0330	-2491.90
0.9844,0.0156	-2473.62
0.9816,0.0184	-2473.61
0.9887,0.0113	-2465.03
0.9648,0.0352	-2495.21
0.9702,0.0298	-2481.53
0.9674,0.0326	-2478.34
0.9845,0.0155	-2469.47
0.9838,0.0162	-2473.60
0.9851,0.0149	-2456.87
0.9523,0.0477	-2489.58
0.9677,0.0323	-2498.71
0.9615,0.0385	-2498.42
0.9822,0.0178	-2473.60
0.9825,0.0175	-2465.54
0.9848,0.0152	-2465.29
0.9519,0.0481	-2513.51
0.9690,0.0310	-2481.61
0.9588,0.0412	-2495.25
0.9790,0.0210	-2473.71
0.9836,0.0164	-2485.87
0.9830,0.0170	-2465.49
0.9574,0.0426	-2476.63
0.9677,0.0323	-2478.31
0.9587,0.0413	-2495.25
0.9785,0.0215	-2466.10
0.9839,0.0161	-2473.60
0.9813,0.0187	-2465.69
0.9685,0.0315	-2481.65
0.9665,0.0335	-2471.72
0.9665,0.0335	-2501.99
0.9740,0.0260	-2477.74
0.9821,0.0179	-2461.59
0.9843,0.0157	-2469.48
0.9679,0.0321	-2474.87
0.9733,0.0267	-2495.77
0.9498,0.0502	-2501.64
0.9821,0.0179	-2473.60
0.9822,0.0178	-2473.60
0.9851,0.0149	-2465.25
0.9617,0.0383	-2491.97
0.9669,0.0331	-2488.52
0.9548,0.0452	-2474.07
0.9860,0.0140	-2460.92
0.9830,0.0170	-2473.60
0.9814,0.0186	-2481.55
0.9648,0.0352	-2488.59
0.9621,0.0379	-2491.96
0.9654,0.0346	-2475.26
0.9841,0.0159	-2457.10
0.9858,0.0142	-2465.19
0.9848,0.0152	-2481.97
0.9648,0.0352	-2475.35
0.9602,0.0398	-2476.12
0.9621,0.0379	-2498.43
0.9864,0.0136	-2482.29
0.9869,0.0131	-2456.47
0.9843,0.0157	-2465.33
0.9667,0.0333	-2491.90
0.9549,0.0451	-2504.57
0.9589,0.0411	-2482.65
0.9879,0.0121	-2460.65
0.9859,0.0141	-2465.19
0.9830,0.0170	-2457.36
0.9735,0.0265	-2470.57
0.9548,0.0452	-2513.72
0.9560,0.0440	-2498.44
0.9865,0.0135	-2465.15
0.9851,0.0149	-2482.03
0.9819,0.0181	-2477.60
0.9725,0.0275	-2484.98
0.9607,0.0393	-2485.62
0.9566,0.0434	-2482.96
0.9876,0.0124	-2465.08
0.9826,0.0174	-2477.63
0.9789,0.0211	-2462.21
0.9685,0.0315	-2502.20
0.9648,0.0352	-2488.59
0.9594,0.0406	-2482.58
0.9888,0.0112	-2487.42
0.9836,0.0164	-2457.23
0.9786,0.0214	-2462.27
0.9652,0.0348	-2488.57
0.9680,0.0320	-2488.50
0.9686,0.0314	-2471.36
0.9875,0.0125	-2456.34
0.9850,0.0150	-2461.08
0.9795,0.0205	-2465.95
0.9625,0.0375	-2482.22
0.9689,0.0311	-2471.30
0.9727,0.0273	-2470.69
0.9844,0.0156	-2461.17
0.9840,0.0160	-2465.37
0.9799,0.0201	-2465.89
0.9654,0.0346	-2471.92
0.9764,0.0236	-2496.23
0.9709,0.0291	-2474.48
0.9830,0.0170	-2461.43
0.9853,0.0147	-2469.45
0.9826,0.0174	-2477.63
0.9694,0.0306	-2495.41
0.9740,0.0260	-2481.37
0.9631,0.0369	-2482.15
0.9839,0.0161	-2465.38
0.9857,0.0143	-2460.98
0.9860,0.0140	-2465.18
0.9714,0.0286	-2488.52
0.9736,0.0264	-2477.77
0.9577,0.0423	-2482.81
0.9826,0.0174	-2465.53
0.9900,0.0100	-2455.83
0.9821,0.0179	-2477.61
0.9696,0.0304	-2498.89
0.9744,0.0256	-2470.44
0.9500,0.0500	-2498.69
0.9828,0.0172	-2469.55
0.9894,0.0106	-2451.42
0.9852,0.0148	-2473.64
0.9713,0.0287	-2492.04
0.9792,0.0208	-2469.85
0.9518,0.0482	-2504.56
0.9805,0.0195	-2477.56
0.9894,0.0106	-2465.02
0.9859,0.0141	-2477.93
0.9622,0.0378	-2482.24
0.9753,0.0247	-2470.31
0.9477,0.0523	-2513.32
0.9785,0.0215	-2481.38
0.9911,0.0089	-2465.05
0.9855,0.0145	-2465.22
0.9679,0.0321	-2481.69
0.9774,0.0226	-2481.35
0.9411,0.0589	-2507.71
0.9827,0.0173	-2465.52
0.9914,0.0086	-2465.07
0.9867,0.0133	-2473.74
0.9650,0.0350	-2505.17
0.9737,0.0263	-2488.60
0.9356,0.0644	-2534.78
0.9759,0.0241	-2477.64
0.9925,0.0075	-2460.27
0.9826,0.0174	-2473.60
0.9641,0.0359	-2482.04
0.9686,0.0314	-2485.07
0.9336,0.0664	-2508.17
0.9732,0.0268	-2474.21
0.9938,0.0062	-2460.27
0.9798,0.0202	-2469.79
0.9616,0.0384	-2479.09
0.9653,0.0347	-2471.94
0.9557,0.0443	-2489.23
0.9757,0.0243	-2481.34
0.9941,0.0059	-2460.28
0.9870,0.0130	-2469.44
0.9682,0.0318	-2481.67
0.9651,0.0349	-2485.26
0.9516,0.0484	-2504.56
0.9760,0.0240	-2477.63
0.9942,0.0058	-2455.14
0.9812,0.0188	-2477.57
0.9687,0.0313	-2485.07
0.9663,0.0337	-2508.68
0.9462,0.0538	-2496.08
0.9763,0.0237	-2485.06
0.9950,0.0050	-2449.77
0.9786,0.0214	-2466.09
0.9642,0.0358	-2491.91
0.9676,0.0324	-2522.49
0.9399,0.0601	-2510.52
0.9778,0.0222	-2462.43
0.9948,0.0052	-2470.82
0.9733,0.0267	-2481.39
0.9711,0.0289	-2470.94
0.9586,0.0414	-2485.83
0.9432,0.0568	-2513.25
0.9767,0.0233	-2477.61
0.9932,0.0068	-2450.30
0.9685,0.0315	-2495.35
0.9672,0.0328	-2478.37
0.9598,0.0402	-2495.23
0.9487,0.0513	-2510.44
0.9637,0.0363	-2491.92
0.9948,0.0052	-2455.08
0.9683,0.0317	-2485.08
0.9720,0.0280	-2477.89
0.9632,0.0368	-2495.19
0.9326,0.0674	-2513.50
0.9705,0.0295	-2488.50
0.9933,0.0067	-2460.26
0.9719,0.0281	-2506.25
0.9687,0.0313	-2474.77
0.9639,0.0361	-2501.77
0.9354,0.0646	-2505.36
0.9647,0.0353	-2491.90
0.9926,0.0074	-2474.97
0.9706,0.0294	-2485.01
0.9661,0.0339	-2495.25
0.9681,0.0319	-2485.09
0.9547,0.0453	-2492.37
0.9714,0.0286	-2481.47
0.9934,0.0066	-2455.24
0.9717,0.0283	-2477.91
0.9693,0.0307	-2467.78
0.9669,0.0331	-2495.27
0.9587,0.0413	-2514.13
0.9677,0.0323	-2488.51
0.9958,0.0042	-2460.46
0.9689,0.0311	-2481.62
0.9686,0.0314	-2474.78
0.9631,0.0369	-2498.46
0.9600,0.0400	-2488.86
0.9617,0.0383	-2488.75
0.9966,0.0034	-2454.98
0.9615,0.0385	-2491.98
0.9708,0.0292	-2474.49
0.9561,0.0439	-2507.68
0.9677,0.0323	-2488.51
0.9618,0.0382	-2488.74
0.9954,0.0046	-2455.02
0.9662,0.0338	-2478.48
0.9785,0.0215	-2481.38
0.9618,0.0382	-2488.74
0.9622,0.0378	-2485.48
0.9668,0.0332	-2481.78
0.9947,0.0053	-2455.09
0.9654,0.0346	-2471.93
0.9805,0.0195	-2485.40
0.9603,0.0397	-2492.03
0.9535,0.0465	-2501.54
0.9644,0.0356	-2498.50
0.9941,0.0059	-2455.15
0.9545,0.0455	-2501.52
0.9841,0.0159	-2465.36
0.9534,0.0466	-2498.52
0.9459,0.0541	-2501.83
0.9598,0.0402	-2479.35
0.9927,0.0073	-2465.18
0.9434,0.0566	-2496.37
0.9801,0.0199	-2469.76
0.9578,0.0422	-2479.67
0.9411,0.0589	-2496.63
0.9712,0.0288	-2481.48
0.9917,0.0083	-2455.52
0.9393,0.0607	-2510.54
0.9758,0.0242	-2470.24
0.9562,0.0438	-2489.18
0.9454,0.0546	-2513.27
0.9787,0.0213	-2462.25
0.9932,0.0068	-2465.25
0.9419,0.0581	-2510.46
0.9709,0.0291	-2495.52
0.9681,0.0319	-2502.16
0.9519,0.0481	-2495.60
0.9776,0.0224	-2470.02
0.9940,0.0060	-2450.05
0.9476,0.0524	-2487.26
0.9705,0.0295	-2471.04
0.9696,0.0304	-2485.03
0.9675,0.0325	-2464.77
0.9751,0.0249	-2466.68
0.9934,0.0066	-2470.30
0.9427,0.0573	-2502.05
0.9725,0.0275	-2474.28
0.9735,0.0265	-2484.98
0.9716,0.0284	-2477.92
0.9782,0.0218	-2473.76
0.9924,0.0076	-2474.90
0.9422,0.0578	-2507.67
0.9773,0.0227	-2481.35
0.9741,0.0259	-2499.50
0.9766,0.0234	-2477.61
0.9736,0.0264	-2470.55
0.9926,0.0074	-2460.27
0.9424,0.0576	-2490.88
0.9741,0.0259	-2484.99
0.9684,0.0316	-2488.50
0.9728,0.0272	-2467.10
0.9685,0.0315	-2474.80
0.9923,0.0077	-2455.41
0.9513,0.0487	-2510.50
0.9675,0.0325	-2474.93
0.9667,0.0333	-2491.90
0.9754,0.0246	-2481.34
0.9714,0.0286	-2481.47
0.9913,0.0087	-2465.06
0.9524,0.0476	-2486.58
0.9658,0.0342	-2475.19
0.9714,0.0286	-2484.99
0.9715,0.0285	-2477.93
0.9719,0.0281	-2484.99
0.9939,0.0061	-2455.18
0.9436,0.0564	-2496.35
0.9616,0.0384	-2495.20
0.9660,0.0340	-2485.20
0.9722,0.0278	-2492.09
0.9667,0.0333	-2485.16
0.9940,0.0060	-2470.48
0.9487,0.0513	-2504.60
0.9591,0.0409	-2507.86
0.9622,0.0378	-2488.72
0.9751,0.0249	-2466.67
0.9656,0.0344	-2478.56
0.9939,0.0061	-2455.18
0.9456,0.0544	-2490.43
0.9617,0.0383	-2498.42
0.9650,0.0350	-2481.95
0.9761,0.0239	-2485.05
0.9741,0.0259	-2492.25
0.9944,0.0056	-2460.30
0.9380,0.0620	-2499.72
0.9674,0.0326	-2488.51
0.9691,0.0309	-2488.50
0.9721,0.0279	-2481.43
0.9565,0.0435	-2492.25
0.9953,0.0047	-2460.38
0.9364,0.0636	-2507.97
0.9661,0.0339	-2471.80
0.9643,0.0357	-2472.12
0.9682,0.0318	-2471.43
0.9579,0.0421	-2501.53
0.9945,0.0055	-2455.11
0.9321,0.0679	-2510.91
0.9649,0.0351	-2491.90
0.9628,0.0372	-2491.94
0.9724,0.0276	-2484.98
0.9583,0.0417	-2482.73
0.9928,0.0072	-2455.34
0.9410,0.0590	-2504.95
0.9632,0.0368	-2482.14
0.9679,0.0321	-2485.10
0.9725,0.0275	-2477.85
0.9625,0.0375	-2491.95
0.9934,0.0066	-2460.26
0.9497,0.0503	-2495.77
0.9662,0.0338	-2505.31
0.9648,0.0352	-2491.90
0.9715,0.0285	-2492.05
0.9602,0.0398	-2476.12
0.9925,0.0075	-2455.38
0.9489,0.0511	-2490.00
0.9676,0.0324	-2485.11
0.9631,0.0369	-2475.63
0.9644,0.0356	-2482.01
0.9601,0.0399	-2501.58
0.9929,0.0071	-2450.39
0.9469,0.0531	-2504.66
0.9705,0.0295	-2481.51
0.9673,0.0327	-2481.74
0.9570,0.0430	-2479.81
0.9583,0.0417	-2479.59
0.9903,0.0097	-2455.76
0.9505,0.0495	-2516.39
0.9716,0.0284	-2481.45
0.9669,0.0331	-2478.40
0.9548,0.0452	-2516.77
0.9510,0.0490	-2495.67
0.9904,0.0096	-2451.12
0.9527,0.0473	-2474.53
0.9660,0.0340	-2468.47
0.9682,0.0318	-2485.09
0.9596,0.0404	-2488.89
0.9370,0.0630	-2518.73
0.9918,0.0082	-2450.71
0.9474,0.0526	-2510.42
0.9607,0.0393	-2482.42
0.9719,0.0281	-2477.90
0.9590,0.0410	-2507.86
0.9338,0.0662	-2494.92
0.9912,0.0088	-2465.05
0.9484,0.0516	-2501.70
0.9685,0.0315	-2485.07
0.9689,0.0311	-2474.74
0.9573,0.0427	-2504.63
0.9418,0.0582	-2502.11
0.9912,0.0088	-2469.78
0.9466,0.0534	-2501.79
0.9627,0.0373	-2498.44
0.9600,0.0400	-2479.33
0.9617,0.0383	-2479.07
0.9383,0.0617	-2496.96
0.9933,0.0067	-2455.26
0.9483,0.0517	-2498.79
0.9548,0.0452	-2495.42
0.9594,0.0406	-2492.07
0.9615,0.0385	-2501.63
0.9376,0.0624	-2507.90
0.9923,0.0077	-2474.85
0.9389,0.0611	-2485.96
0.9650,0.0350	-2481.95
0.9627,0.0373	-2501.69
0.9647,0.0353	-2491.90
0.9372,0.0628	-2505.22
0.9922,0.0078	-2455.43
0.9434,0.0566	-2521.69
0.9661,0.0339	-2501.94
0.9689,0.0311	-2478.18
0.9638,0.0362	-2485.35
0.9346,0.0654	-2526.71
0.9919,0.0081	-2455.48
0.9419,0.0581	-2518.82
0.9713,0.0287	-2481.47
0.9707,0.0293	-2485.00
0.9581,0.0419	-2510.92
0.9419,0.0581	-2524.39
0.9932,0.0068	-2465.25
0.9451,0.0549	-2487.65
0.9725,0.0275	-2467.16
0.9657,0.0343	-2485.22
0.9690,0.0310	-2485.05
0.9562,0.0438	-2486.10
0.9944,0.0056	-2460.30
0.9422,0.0578	-2502.08
0.9809,0.0191	-2465.75
0.9675,0.0325	-2491.91
0.9712,0.0288	-2492.03
0.9535,0.0465	-2501.54
0.9937,0.0063	-2450.15
0.9408,0.0592	-2496.66
0.9816,0.0184	-2473.61
0.9667,0.0333	-2488.53
0.9674,0.0326	-2474.96
0.9576,0.0424	-2485.93
0.9945,0.0055	-2465.51
0.9403,0.0597	-2504.99
0.9779,0.0221	-2469.99
0.9690,0.0310	-2485.05
0.9679,0.0321	-2498.73
0.9533,0.0467	-2495.51
0.9940,0.0060	-2455.17
0.9473,0.0527	-2498.87
0.9678,0.0322	-2478.29
0.9717,0.0283	-2488.52
0.9679,0.0321	-2478.29
0.9532,0.0468	-2504.56
0.9940,0.0060	-2465.39
0.9446,0.0554	-2501.92
0.9624,0.0376	-2495.19
0.9761,0.0239	-2477.63
0.9693,0.0307	-2488.50
0.9526,0.0474	-2504.55
0.9936,0.0064	-2460.27
0.9377,0.0623	-2516.02
0.9524,0.0476	-2492.57
0.9760,0.0240	-2466.51
0.9708,0.0292	-2477.99
0.9451,0.0549	-2487.65
0.9932,0.0068	-2465.24
0.9589,0.0411	-2488.95
0.9547,0.0453	-2510.67
0.9824,0.0176	-2461.53
0.9772,0.0228	-2485.10
0.9557,0.0443	-2507.66
0.9931,0.0069	-2455.29
0.9691,0.0309	-2467.82
0.9612,0.0388	-2491.99
0.9823,0.0177	-2469.58
0.9752,0.0248	-2477.67
0.9446,0.0554	-2496.24
0.9901,0.0099	-2455.81
0.9660,0.0340	-2475.16
0.9580,0.0420	-2504.66
0.9816,0.0184	-2473.61
0.9714,0.0286	-2474.42
0.9331,0.0669	-2508.21
0.9900,0.0100	-2465.02
0.9705,0.0295	-2485.01
0.9512,0.0488	-2507.53
0.9771,0.0229	-2473.84
0.9730,0.0270	-2474.23
0.9303,0.0697	-2500.67
0.9930,0.0070	-2455.31
0.9671,0.0329	-2474.99
0.9529,0.0471	-2495.53
0.9729,0.0271	-2470.66
0.9761,0.0239	-2473.92
0.9269,0.0731	-2511.30
0.9932,0.0068	-2455.28
0.9673,0.0327	-2468.19
0.9492,0.0508	-2478.25
0.9673,0.0327	-2474.97
0.9707,0.0293	-2478.00
0.9231,0.0769	-2514.13
0.9930,0.0070	-2450.36
0.9670,0.0330	-2481.77
0.9426,0.0574	-2510.45
0.9696,0.0304	-2467.72
0.9677,0.0323	-2485.11
0.9161,0.0839	-2526.76
0.9918,0.0082	-2469.89
0.9694,0.0306	-2478.13
0.9490,0.0510	-2487.05
0.9657,0.0343	-2491.90
0.9582,0.0418	-2482.74
0.9197,0.0803	-2507.13
0.9912,0.0088	-2469.77
0.9735,0.0265	-2481.38
0.9448,0.0552	-2507.58
0.9617,0.0383	-2495.20
0.9569,0.0431	-2479.82
0.9226,0.0774	-2509.23
0.9918,0.0082	-2460.30
0.9717,0.0283	-2477.91
0.9521,0.0479	-2516.51
0.9700,0.0300	-2464.17
0.9696,0.0304	-2481.57
0.9226,0.0774	-2499.31
0.9914,0.0086	-2460.31
0.9725,0.0275	-2481.42
0.9435,0.0565	-2499.17
0.9661,0.0339	-2485.19
0.9731,0.0269	-2477.81
0.9300,0.0700	-2513.64
0.9923,0.0077	-2465.14
0.9735,0.0265	-2481.38
0.9364,0.0636	-2524.11
0.9591,0.0409	-2488.93
0.9736,0.0264	-2477.77
0.9318,0.0682	-2524.00
0.9936,0.0064	-2460.27
0.9724,0.0276	-2477.86
0.9408,0.0592	-2504.96
0.9642,0.0358	-2491.91
0.9818,0.0182	-2465.63
0.9275,0.0725	-2521.45
0.9930,0.0070	-2455.30
0.9760,0.0240	-2470.22
0.9462,0.0538	-2498.94
0.9575,0.0425	-2498.41
0.9834,0.0166	-2473.60
0.9232,0.0768	-2526.56
0.9926,0.0074	-2470.05
0.9754,0.0246	-2466.61
0.9483,0.0517	-2487.15
0.9497,0.0503	-2478.13
0.9833,0.0167	-2493.98
0.9345,0.0655	-2516.08
0.9917,0.0083	-2450.75
0.9693,0.0307	-2478.14
0.9336,0.0664	-2516.10
0.9553,0.0447	-2492.33
0.9802,0.0198	-2465.85
0.9308,0.0692	-2508.40
0.9910,0.0090	-2460.34
0.9672,0.0328	-2478.37
0.9335,0.0665	-2521.39
0.9523,0.0477	-2498.57
0.9827,0.0173	-2461.47
0.9297,0.0703	-2500.74
0.9905,0.0095	-2478.97
0.9729,0.0271	-2499.30
0.9401,0.0599	-2496.74
0.9583,0.0417	-2520.35
0.9847,0.0153	-2461.14
0.9216,0.0784	-2504.41
0.9888,0.0112	-2469.51
0.9775,0.0225	-2477.58
0.9411,0.0589	-2532.66
0.9552,0.0448	-2492.34
0.9831,0.0169	-2477.66
0.9241,0.0759	-2509.06
0.9889,0.0111	-2469.52
0.9814,0.0186	-2473.61
0.9471,0.0529	-2510.42
0.9489,0.0511	-2487.07
0.9840,0.0160	-2465.36
0.9078,0.0922	-2531.78
0.9906,0.0094	-2465.03
0.9818,0.0182	-2485.57
0.9510,0.0490	-2504.56
0.9428,0.0572	-2518.85
0.9876,0.0124	-2469.45
0.9063,0.0937	-2534.12
0.9922,0.0078	-2465.12
0.9758,0.0242	-2470.25
0.9446,0.0554	-2493.40
0.9414,0.0586	-2499.36
0.9881,0.0119	-2465.05
0.9318,0.0682	-2505.70
0.9917,0.0083	-2455.52
0.9737,0.0263	-2506.66
0.9491,0.0509	-2507.52
0.9462,0.0538	-2490.34
0.9903,0.0097	-2465.02
0.9335,0.0665	-2497.61
0.9912,0.0088	-2455.60
0.9775,0.0225	-2477.58
0.9523,0.0477	-2510.54
0.9640,0.0360	-2472.18
0.9903,0.0097	-2451.14
0.9342,0.0658	-2529.35
0.9901,0.0099	-2460.41
0.9812,0.0188	-2457.81
0.9570,0.0430	-2501.52
0.9588,0.0412	-2482.66
0.9893,0.0107	-2469.55
0.9381,0.0619	-2529.61
0.9893,0.0107	-2460.49
0.9792,0.0208	-2496.81
0.9556,0.0444	-2504.58
0.9649,0.0351	-2478.64
0.9922,0.0078	-2465.12
0.9296,0.0704	-2516.25
0.9903,0.0097	-2483.51
0.9760,0.0240	-2462.82
0.9594,0.0406	-2485.75
0.9576,0.0424	-2498.41
0.9902,0.0098	-2465.02
0.9330,0.0670	-2508.21
0.9924,0.0076	-2474.88
0.9772,0.0228	-2470.08
0.9609,0.0391	-2495.21
0.9521,0.0479	-2501.57
0.9880,0.0120	-2460.65
0.9335,0.0665	-2539.88
0.9934,0.0066	-2455.24
0.9785,0.0215	-2477.56
0.9702,0.0298	-2471.08
0.9442,0.0558	-2493.46
0.9886,0.0114	-2469.50
0.9232,0.0768	-2509.16
0.9912,0.0088	-2450.88
0.9832,0.0168	-2469.53
0.9693,0.0307	-2491.95
0.9438,0.0562	-2499.15
0.9897,0.0103	-2465.02
0.9318,0.0682	-2516.16
0.9916,0.0084	-2455.54
0.9827,0.0173	-2481.68
0.9747,0.0253	-2470.40
0.9421,0.0579	-2499.30
0.9892,0.0108	-2465.02
0.9319,0.0681	-2534.47
0.9913,0.0087	-2455.59
0.9815,0.0185	-2481.56
0.9651,0.0349	-2478.62
0.9555,0.0445	-2495.39
0.9899,0.0101	-2451.27
0.9404,0.0596	-2510.50
0.9916,0.0084	-2460.31
0.9838,0.0162	-2457.18
0.9683,0.0317	-2481.66
0.9523,0.0477	-2534.49
0.9895,0.0105	-2455.92
0.9512,0.0488	-2516.44
0.9891,0.0109	-2456.01
0.9808,0.0192	-2453.98
0.9756,0.0244	-2485.03
0.9549,0.0451	-2495.41
0.9903,0.0097	-2469.65
0.9589,0.0411	-2488.95
0.9894,0.0106	-2478.62
0.9788,0.0212	-2466.06
0.9727,0.0273	-2467.11
0.9496,0.0504	-2504.58
0.9915,0.0085	-2460.31
0.9677,0.0323	-2498.71
0.9903,0.0097	-2455.77
0.9805,0.0195	-2461.88
0.9709,0.0291	-2495.53
0.9534,0.0466	-2492.48
0.9899,0.0101	-2460.44
0.9603,0.0397	-2488.85
0.9921,0.0079	-2465.12
0.9854,0.0146	-2461.02
0.9666,0.0334	-2478.43
0.9470,0.0530	-2504.65
0.9901,0.0099	-2460.41
0.9656,0.0344	-2485.23
0.9910,0.0090	-2465.04
0.9824,0.0176	-2469.58
0.9684,0.0316	-2478.23
0.9579,0.0421	-2492.16
0.9869,0.0131	-2460.80
0.9782,0.0218	-2488.98
0.9920,0.0080	-2460.29
0.9869,0.0131	-2460.80
0.9687,0.0313	-2474.77
0.9673,0.0327	-2478.35
0.9877,0.0123	-2469.46
0.9819,0.0181	-2469.61
0.9907,0.0093	-2469.70
0.9920,0.0080	-2450.64
0.9651,0.0349	-2485.26
0.9611,0.0389	-2504.83
0.9867,0.0133	-2460.82
0.9839,0.0161	-2461.27
0.9895,0.0105	-2460.47
0.9919,0.0081	-2489.12
0.9657,0.0343	-2495.23
0.9647,0.0353	-2481.98
0.9856,0.0144	-2490.57
0.9882,0.0118	-2469.48
0.9896,0.0104	-2474.14
0.9903,0.0097	-2469.64
0.9610,0.0390	-2492.00
0.9710,0.0290	-2485.00
0.9828,0.0172	-2477.64
0.9851,0.0149	-2469.45
0.9900,0.0100	-2460.43
0.9903,0.0097	-2460.40
0.9690,0.0310	-2488.50
0.9738,0.0262	-2466.91
0.9818,0.0182	-2481.58
0.9908,0.0092	-2460.35
0.9888,0.0112	-2460.55
0.9891,0.0109	-2469.53
0.9719,0.0281	-2481.44
0.9767,0.0233	-2481.34
0.9842,0.0158	-2469.48
0.9936,0.0064	-2460.26
0.9879,0.0121	-2451.86
0.9860,0.0140	-2456.67
0.9752,0.0248	-2485.02
0.9810,0.0190	-2457.85
0.9852,0.0148	-2456.85
0.9928,0.0072	-2460.26
0.9873,0.0127	-2460.74
0.9884,0.0116	-2473.94
0.9783,0.0217	-2473.75
0.9837,0.0163	-2469.50
0.9868,0.0132	-2460.81
0.9927,0.0073	-2455.35
0.9859,0.0141	-2473.69
0.9890,0.0110	-2460.53
0.9710,0.0290	-2488.51
0.9863,0.0137	-2477.98
0.9861,0.0139	-2460.91
0.9919,0.0081	-2455.49
0.9825,0.0175	-2469.57
0.9877,0.0123	-2460.69
0.9736,0.0264	-2470.55
0.9861,0.0139	-2465.17
0.9897,0.0103	-2455.89
0.9926,0.0074	-2460.27
0.9802,0.0198	-2469.75
0.9876,0.0124	-2460.70
0.9754,0.0246	-2481.34
0.9879,0.0121	-2451.85
0.9900,0.0100	-2460.42
0.9943,0.0057	-2460.29
0.9820,0.0180	-2477.60
0.9887,0.0113	-2451.63
0.9688,0.0312	-2485.06
0.9841,0.0159	-2461.23
0.9882,0.0118	-2482.77
0.9945,0.0055	-2455.11
0.9807,0.0193	-2469.70
0.9898,0.0102	-2465.02
0.9681,0.0319	-2488.50
0.9844,0.0156	-2473.62
0.9886,0.0114	-2456.12
0.9941,0.0059	-2455.15
0.9784,0.0216	-2469.94
0.9924,0.0076	-2455.40
0.9701,0.0299	-2478.06
0.9815,0.0185	-2461.69
0.9889,0.0111	-2456.04
0.9943,0.0057	-2449.97
0.9829,0.0171	-2481.70
0.9928,0.0072	-2455.33
0.9717,0.0283	-2470.85
0.9810,0.0190	-2473.62
0.9866,0.0134	-2460.84
0.9950,0.0050	-2465.64
0.9763,0.0237	-2466.47
0.9914,0.0086	-2450.81
0.9695,0.0305	-2481.57
0.9826,0.0174	-2461.49
0.9901,0.0099	-2455.81
0.9957,0.0043	-2455.00
0.9736,0.0264	-2474.16
0.9901,0.0099	-2460.41
0.9736,0.0264	-2495.81
0.9843,0.0157	-2473.61
0.9882,0.0118	-2456.18
0.9957,0.0043	-2455.01
0.9768,0.0232	-2477.60
0.9892,0.0108	-2455.98
0.9703,0.0297	-2485.01
0.9878,0.0122	-2465.06
0.9853,0.0147	-2490.47
0.9955,0.0045	-2460.41
0.9825,0.0175	-2473.60
0.9885,0.0115	-2456.12
0.9657,0.0343	-2478.54
0.9889,0.0111	-2465.03
0.9877,0.0123	-2465.07
0.9958,0.0042	-2460.46
0.9802,0.0198	-2485.36
0.9875,0.0125	-2465.08
0.9701,0.0299	-2478.06
0.9879,0.0121	-2469.47
0.9894,0.0106	-2455.95
0.9957,0.0043	-2455.01
0.9840,0.0160	-2477.73
0.9853,0.0147	-2465.24
0.9682,0.0318	-2481.67
0.9857,0.0143	-2465.21
0.9887,0.0113	-2465.03
0.9952,0.0048	-2449.69
0.9835,0.0165	-2473.60
0.9863,0.0137	-2460.88
0.9617,0.0383	-2485.53
0.9878,0.0122	-2460.67
0.9885,0.0115	-2456.14
0.9956,0.0044	-2460.43
0.9848,0.0152	-2465.29
0.9871,0.0129	-2456.42
0.9583,0.0417	-2482.73
0.9882,0.0118	-2465.05
0.9859,0.0141	-2482.18
0.9946,0.0054	-2449.88
0.9823,0.0177	-2465.57
0.9883,0.0117	-2469.48
0.9515,0.0485	-2498.61
0.9893,0.0107	-2465.02
0.9879,0.0121	-2460.66
0.9945,0.0055	-2455.11
0.9850,0.0150	-2477.82
0.9898,0.0102	-2455.87
0.9550,0.0450	-2498.46
0.9889,0.0111	-2451.57
0.9894,0.0106	-2469.56
0.9931,0.0069	-2450.32
0.9833,0.0167	-2477.67
0.9891,0.0109	-2460.52
0.9378,0.0622	-2510.60
0.9891,0.0109	-2469.53
0.9900,0.0100	-2455.83
0.9917,0.0083	-2450.73
0.9842,0.0158	-2469.48
0.9889,0.0111	-2465.03
0.9512,0.0488	-2477.84
0.9862,0.0138	-2465.17
0.9895,0.0105	-2469.57
0.9924,0.0076	-2460.27
0.9848,0.0152	-2469.46
0.9888,0.0112	-2478.48
0.9507,0.0493	-2501.61
0.9829,0.0171	-2473.60
0.9891,0.0109	-2474.04
0.9941,0.0059	-2455.16
0.9863,0.0137	-2469.43
0.9893,0.0107	-2469.54
0.9597,0.0403	-2498.40
0.9810,0.0190	-2461.78
0.9891,0.0109	-2456.00
0.9941,0.0059	-2460.28
0.9847,0.0153	-2465.30
0.9925,0.0075	-2465.15
0.9556,0.0444	-2473.89
0.9829,0.0171	-2469.54
0.9898,0.0102	-2465.02
0.9926,0.0074	-2455.37
0.9863,0.0137	-2469.43
0.9935,0.0065	-2460.26
0.9538,0.0462	-2486.39
0.9874,0.0126	-2482.52
0.9881,0.0119	-2460.64
0.9943,0.0057	-2449.98
0.9859,0.0141	-2465.19
0.9950,0.0050	-2460.35
0.9625,0.0375	-2504.93
0.9862,0.0138	-2473.70
0.9870,0.0130	-2460.78
0.9946,0.0054	-2449.87
0.9841,0.0159	-2469.48
0.9945,0.0055	-2460.31
0.9652,0.0348	-2481.93
0.9861,0.0139	-2452.39
0.9844,0.0156	-2461.18
0.9934,0.0066	-2460.26
0.9858,0.0142	-2486.41
0.9949,0.0051	-2455.07
0.9597,0.0403	-2501.57
0.9799,0.0201	-2485.33
0.9815,0.0185	-2457.72
0.9913,0.0087	-2455.59
0.9830,0.0170	-2485.76
0.9939,0.0061	-2470.45
0.9665,0.0335	-2478.45
0.9803,0.0197	-2465.84
0.9819,0.0181	-2477.60
0.9932,0.0068	-2470.22
0.9778,0.0222	-2485.14
0.9933,0.0067	-2465.26
0.9571,0.0429	-2520.15
0.9824,0.0176	-2465.56
0.9778,0.0222	-2488.93
0.9921,0.0079	-2460.28
0.9759,0.0241	-2473.94
0.9921,0.0079	-2460.28
0.9605,0.0395	-2495.21
0.9807,0.0193	-2469.70
0.9769,0.0231	-2470.11
0.9915,0.0085	-2469.84
0.9714,0.0286	-2460.33
0.9914,0.0086	-2450.83
0.9615,0.0385	-2479.10
0.9826,0.0174	-2461.49
0.9725,0.0275	-2481.41
0.9906,0.0094	-2474.35
0.9682,0.0318	-2481.67
0.9911,0.0089	-2450.91
0.9646,0.0354	-2485.29
0.9813,0.0187	-2477.58
0.9778,0.0222	-2473.79
0.9917,0.0083	-2460.30
0.9760,0.0240	-2499.88
0.9897,0.0103	-2469.59
0.9626,0.0374	-2511.43
0.9815,0.0185	-2465.67
0.9759,0.0241	-2477.64
0.9923,0.0077	-2465.14
0.9781,0.0219	-2477.57
0.9914,0.0086	-2450.83
0.9619,0.0381	-2501.65
0.9825,0.0175	-2485.68
0.9687,0.0313	-2491.93
0.9911,0.0089	-2465.05
0.9765,0.0235	-2485.07
0.9894,0.0106	-2451.42
0.9621,0.0379	-2485.49
0.9793,0.0207	-2462.12
0.9575,0.0425	-2501.52
0.9922,0.0078	-2455.43
0.9678,0.0322	-2471.49
0.9881,0.0119	-2465.05
0.9676,0.0324	-2478.32
0.9739,0.0261	-2459.66
0.9643,0.0357	-2495.21
0.9929,0.0071	-2460.26
0.9670,0.0330	-2481.76
0.9853,0.0147	-2461.03
0.9590,0.0410	-2485.79
0.9760,0.0240	-2477.63
0.9618,0.0382	-2488.74
0.9928,0.0072	-2465.19
0.9675,0.0325	-2495.30
0.9867,0.0133	-2460.82
0.9618,0.0382	-2491.97
0.9704,0.0296	-2502.46
0.9661,0.0339	-2488.55
0.9935,0.0065	-2455.23
0.9747,0.0253	-2477.70
0.9846,0.0154	-2461.15
0.9616,0.0384	-2488.76
0.9671,0.0329	-2481.75
0.9711,0.0289	-2474.45
0.9937,0.0063	-2460.27
0.9731,0.0269	-2484.98
0.9862,0.0138	-2465.16
0.9594,0.0406	-2498.40
0.9660,0.0340	-2471.81
0.9784,0.0216	-2469.93
0.9928,0.0072	-2465.18
0.9775,0.0225	-2481.35
0.9868,0.0132	-2465.12
0.9619,0.0381	-2491.97
0.9675,0.0325	-2468.14
0.9792,0.0208	-2469.85
0.9938,0.0062	-2465.34
0.9762,0.0238	-2481.34
0.9849,0.0151	-2465.28
0.9568,0.0432	-2501.52
0.9724,0.0276	-2474.30
0.9706,0.0294	-2478.02
0.9940,0.0060	-2460.28
0.9780,0.0220	-2481.36
0.9829,0.0171	-2481.70
0.9572,0.0428	-2504.63
0.9680,0.0320	-2471.46
0.9740,0.0260	-2466.88
0.9930,0.0070	-2450.35
0.9779,0.0221	-2492.73
0.9825,0.0175	-2477.62
0.9643,0.0357	-2485.31
0.9684,0.0316	-2474.81
0.9789,0.0211	-2489.07
0.9923,0.0077	-2455.41
0.9818,0.0182	-2477.59
0.9823,0.0177	-2465.57
0.9579,0.0421	-2498.41
0.9660,0.0340	-2491.90
0.9770,0.0230	-2496.35
0.9916,0.0084	-2450.77
0.9775,0.0225	-2485.12
0.9866,0.0134	-2465.14
0.9551,0.0449	-2510.69
0.9673,0.0327	-2471.57
0.9820,0.0180	-2461.60
0.9925,0.0075	-2470.03
0.9816,0.0184	-2469.63
0.9856,0.0144	-2473.67
0.9345,0.0655	-2489.50
0.9712,0.0288	-2477.96
0.9799,0.0201	-2469.78
0.9938,0.0062	-2455.20
0.9806,0.0194	-2461.86
0.9830,0.0170	-2457.35
0.9333,0.0667	-2529.30
0.9767,0.0233	-2466.40
0.9822,0.0178	-2465.57
0.9925,0.0075	-2455.39
0.9819,0.0181	-2469.61
0.9838,0.0162	-2465.39
0.9370,0.0630	-2505.23
0.9765,0.0235	-2473.89
0.9835,0.0165	-2465.42
0.9910,0.0090	-2460.34
0.9833,0.0167	-2469.52
0.9826,0.0174	-2473.60
0.9376,0.0624	-2497.06
0.9837,0.0163	-2477.70
0.9829,0.0171	-2469.55
0.9914,0.0086	-2469.81
0.9820,0.0180	-2473.60
0.9803,0.0197	-2461.94
0.9328,0.0672	-2518.75
0.9791,0.0209	-2466.01
0.9849,0.0151	-2465.27
0.9923,0.0077	-2465.13
0.9854,0.0146	-2477.87
0.9859,0.0141	-2465.19
0.9354,0.0646	-2505.37
0.9794,0.0206	-2462.10
0.9841,0.0159	-2473.61
0.9928,0.0072	-2460.26
0.9845,0.0155	-2457.00
0.9863,0.0137	-2456.61
0.9377,0.0623	-2505.18
0.9812,0.0188	-2477.57
0.9841,0.0159	-2457.10
0.9932,0.0068	-2455.27
0.9823,0.0177	-2489.66
0.9886,0.0114	-2456.12
0.9371,0.0629	-2513.33
0.9802,0.0198	-2477.56
0.9829,0.0171	-2477.65
0.9933,0.0067	-2460.26
0.9840,0.0160	-2461.26
0.9878,0.0122	-2465.07
0.9398,0.0602	-2499.53
0.9846,0.0154	-2456.98
0.9830,0.0170	-2473.60
0.9923,0.0077	-2450.56
0.9820,0.0180	-2465.60
0.9903,0.0097	-2455.77
0.9421,0.0579	-2510.46
0.9866,0.0134	-2469.44
0.9846,0.0154	-2473.62
0.9884,0.0116	-2460.60
0.9818,0.0182	-2477.60
0.9899,0.0101	-2455.86
0.9495,0.0505	-2522.18
0.9838,0.0162	-2465.39
0.9836,0.0164	-2481.78
0.9817,0.0183	-2465.64
0.9814,0.0186	-2465.69
0.9909,0.0091	-2455.65
0.9475,0.0525	-2481.48
0.9848,0.0152	-2469.46
0.9834,0.0166	-2465.43
0.9846,0.0154	-2469.46
0.9825,0.0175	-2465.54
0.9909,0.0091	-2465.04
0.9565,0.0435	-2507.70
0.9868,0.0132	-2460.81
0.9849,0.0151	-2465.28
0.9838,0.0162	-2481.82
0.9808,0.0192	-2453.98
0.9910,0.0090	-2474.46
0.9625,0.0375	-2478.96
0.9860,0.0140	-2469.44
0.9805,0.0195	-2469.73
0.9810,0.0190	-2489.40
0.9823,0.0177	-2469.58
0.9918,0.0082	-2465.09
0.9584,0.0416	-2495.26
0.9846,0.0154	-2481.94
0.9836,0.0164	-2461.33
0.9792,0.0208	-2473.70
0.9800,0.0200	-2461.98
0.9932,0.0068	-2460.26
0.9605,0.0395	-2479.26
0.9837,0.0163	-2465.40
0.9803,0.0197	-2473.65
0.9789,0.0211	-2477.56
0.9830,0.0170	-2461.43
0.9939,0.0061	-2455.18
0.9671,0.0329	-2481.76
0.9862,0.0138	-2477.97
0.9776,0.0224	-2481.35
0.9772,0.0228	-2477.59
0.9803,0.0197	-2485.37
0.9934,0.0066	-2455.25
0.9682,0.0318	-2478.26
0.9860,0.0140	-2477.94
0.9820,0.0180	-2457.60
0.9715,0.0285	-2481.46
0.9794,0.0206	-2469.83
0.9951,0.0049	-2465.68
0.9686,0.0314	-2488.50
0.9809,0.0191	-2493.32
0.9842,0.0158	-2465.35
0.9684,0.0316	-2485.08
0.9763,0.0237	-2473.90
0.9955,0.0045	-2449.63
0.9616,0.0384	-2508.08
0.9809,0.0191	-2465.75
0.9836,0.0164	-2465.41
0.9608,0.0392	-2492.01
0.9757,0.0243	-2492.42
0.9950,0.0050	-2455.06
0.9632,0.0368	-2485.40
0.9827,0.0173	-2473.60
0.9821,0.0179	-2469.60
0.9663,0.0337	-2488.54
0.9731,0.0269	-2492.16
0.9958,0.0042	-2455.00
0.9607,0.0393	-2492.01
0.9825,0.0175	-2461.51
0.9848,0.0152	-2469.46
0.9562,0.0438	-2489.18
0.9709,0.0291	-2481.49
0.9958,0.0042	-2455.00
0.9648,0.0352	-2481.97
0.9821,0.0179	-2461.59
0.9848,0.0152	-2456.93
0.9503,0.0497	-2516.38
0.9675,0.0325	-2505.48
0.9960,0.0040	-2449.48
0.9521,0.0479	-2489.60
0.9825,0.0175	-2465.54
0.9861,0.0139	-2465.18
0.9511,0.0489	-2483.78
0.9765,0.0235	-2481.34
0.9958,0.0042	-2455.00
0.9533,0.0467	-2498.52
0.9816,0.0184	-2485.55
0.9895,0.0105	-2460.47
0.9478,0.0522	-2513.33
0.9740,0.0260	-2499.49
0.9954,0.0046	-2449.64
0.9604,0.0396	-2498.40
0.9810,0.0190	-2461.79
0.9882,0.0118	-2469.48
0.9377,0.0623	-2526.87
0.9767,0.0233	-2470.13
0.9955,0.0045	-2455.02
0.9626,0.0374	-2478.96
0.9800,0.0200	-2473.66
0.9892,0.0108	-2469.54
0.9270,0.0730	-2498.59
0.9800,0.0200	-2489.23
0.9947,0.0053	-2455.09
0.9520,0.0480	-2495.59
0.9803,0.0197	-2469.75
0.9912,0.0088	-2455.60
0.9080,0.0920	-2520.32
0.9806,0.0194	-2489.34
0.9956,0.0044	-2455.01
0.9497,0.0503	-2528.09
0.9767,0.0233	-2481.34
0.9925,0.0075	-2470.04
0.8961,0.1039	-2515.26
0.9775,0.0225	-2473.81
0.9951,0.0049	-2455.05
0.9540,0.0460	-2495.46
0.9740,0.0260	-2484.99
0.9919,0.0081	-2450.68
0.8943,0.1057	-2549.73
0.9765,0.0235	-2485.07
0.9957,0.0043	-2455.01
0.9383,0.0617	-2516.02
0.9743,0.0257	-2474.09
0.9920,0.0080	-2450.64
0.9132,0.0868	-2533.95
0.9770,0.0230	-2466.35
0.9968,0.0032	-2449.23
0.9387,0.0613	-2496.92
0.9756,0.0244	-2477.65
0.9936,0.0064	-2450.19
0.9250,0.0750	-2513.98
0.9746,0.0254	-2488.65
0.9973,0.0027	-2449.10
0.9420,0.0580	-2502.10
0.9798,0.0202	-2465.91
0.9939,0.0061	-2465.37
0.9361,0.0639	-2502.62
0.9720,0.0280	-2492.08
0.9973,0.0027	-2449.08
0.9387,0.0613	-2507.83
0.9761,0.0239	-2473.92
0.9943,0.0057	-2460.29
0.9356,0.0644	-2505.35
0.9702,0.0298	-2481.53
0.9976,0.0024	-2449.01
0.9392,0.0608	-2505.06
0.9746,0.0254	-2463.12
0.9940,0.0060	-2455.16
0.9203,0.0797	-2514.39
0.9746,0.0254	-2470.41
0.9975,0.0025	-2455.02
0.9450,0.0550	-2501.89
0.9732,0.0268	-2477.80
0.9944,0.0056	-2455.13
0.9195,0.0805	-2529.07
0.9730,0.0270	-2488.56
0.9968,0.0032	-2449.24
0.9460,0.0540	-2484.65
0.9687,0.0313	-2495.36
0.9948,0.0052	-2460.33
0.9328,0.0672	-2516.12
0.9772,0.0228	-2466.32
0.9967,0.0033	-2449.26
0.9438,0.0562	-2504.79
0.9709,0.0291	-2474.47
0.9951,0.0049	-2460.36
0.9514,0.0486	-2498.61
0.9814,0.0186	-2457.75
0.9965,0.0035	-2449.32
0.9549,0.0451	-2489.31
0.9756,0.0244	-2485.03
0.9950,0.0050	-2455.06
0.9559,0.0441	-2492.29
0.9871,0.0129	-2473.78
0.9969,0.0031	-2460.77
0.9573,0.0427	-2495.30
0.9728,0.0272	-2470.67
0.9945,0.0055	-2460.30
0.9433,0.0567	-2507.62
0.9852,0.0148	-2465.25
0.9969,0.0031	-2449.22
0.9508,0.0492	-2501.60
0.9665,0.0335	-2522.15
0.9939,0.0061	-2460.27
0.9507,0.0493	-2486.81
0.9842,0.0158	-2469.48
0.9964,0.0036	-2454.98
0.9486,0.0514	-2495.86
0.9674,0.0326	-2478.35
0.9954,0.0046	-2460.40
0.9405,0.0595	-2507.74
0.9860,0.0140	-2465.18
0.9965,0.0035	-2454.98
0.9525,0.0475	-2504.55
0.9617,0.0383	-2469.42
0.9950,0.0050	-2449.78
0.9404,0.0596	-2504.98
0.9857,0.0143	-2465.21
0.9972,0.0028	-2455.00
0.9446,0.0554	-2499.07
0.9514,0.0486	-2498.61
0.9948,0.0052	-2449.81
0.9458,0.0542	-2498.98
0.9843,0.0157	-2469.48
0.9965,0.0035	-2454.98
0.9315,0.0685	-2503.12
0.9628,0.0372	-2504.95
0.9949,0.0051	-2460.35
0.9562,0.0438	-2495.35
0.9843,0.0157	-2461.19
0.9967,0.0033	-2449.26
0.9423,0.0577	-2521.63
0.9609,0.0391	-2501.61
0.9948,0.0052	-2455.08
0.9672,0.0328	-2481.75
0.9827,0.0173	-2473.60
0.9967,0.0033	-2454.98
0.9272,0.0728	-2526.55
0.9619,0.0381	-2479.06
0.9947,0.0053	-2470.79
0.9652,0.0348	-2488.57
0.9851,0.0149	-2461.07
0.9969,0.0031	-2449.20
0.9421,0.0579	-2490.93
0.9628,0.0372	-2478.93
0.9944,0.0056	-2449.94
0.9660,0.0340	-2481.86
0.9858,0.0142	-2460.96
0.9977,0.0023	-2448.98
0.9378,0.0622	-2507.88
0.9603,0.0397	-2488.84
0.9946,0.0054	-2449.89
0.9690,0.0310	-2502.26
0.9892,0.0108	-2460.50
0.9975,0.0025	-2449.03
0.9306,0.0694	-2513.61
0.9586,0.0414	-2482.69
0.9929,0.0071	-2455.33
0.9636,0.0364	-2508.30
0.9916,0.0084	-2455.53
0.9978,0.0022	-2448.95
0.9211,0.0789	-2531.51
0.9660,0.0340	-2491.90
0.9923,0.0077	-2465.13
0.9687,0.0313	-2485.06
0.9923,0.0077	-2460.28
0.9978,0.0022	-2461.20
0.9171,0.0829	-2519.50
0.9728,0.0272	-2484.98
0.9889,0.0111	-2451.56
0.9801,0.0199	-2477.55
0.9896,0.0104	-2465.02
0.9974,0.0026	-2449.07
0.9323,0.0677	-2503.03
0.9732,0.0268	-2488.57
0.9881,0.0119	-2465.05
0.9798,0.0202	-2465.90
0.9849,0.0151	-2465.28
0.9972,0.0028	-2460.88
0.9353,0.0647	-2516.06
0.9672,0.0328	-2481.75
0.9874,0.0126	-2456.35
0.9790,0.0210	-2477.55
0.9848,0.0152	-2461.11
0.9975,0.0025	-2455.02
0.9204,0.0796	-2526.61
0.9733,0.0267	-2467.01
0.9868,0.0132	-2465.13
0.9798,0.0202	-2465.90
0.9846,0.0154	-2465.30
0.9977,0.0023	-2448.97
0.9156,0.0844	-2524.39
0.9728,0.0272	-2488.56
0.9878,0.0122	-2460.68
0.9764,0.0236	-2466.45
0.9829,0.0171	-2473.60
0.9979,0.0021	-2455.07
0.8993,0.1007	-2543.21
0.9672,0.0328	-2502.06
0.9876,0.0124	-2456.31
0.9774,0.0226	-2470.04
0.9824,0.0176	-2465.56
0.9977,0.0023	-2448.97
0.9050,0.0950	-2547.69
0.9731,0.0269	-2463.46
0.9897,0.0103	-2451.31
0.9773,0.0227	-2462.54
0.9838,0.0162	-2461.28
0.9974,0.0026	-2449.06
0.8818,0.1182	-2562.01
0.9681,0.0319	-2481.68
0.9869,0.0131	-2469.44
0.9789,0.0211	-2469.88
0.9861,0.0139	-2473.70
0.9970,0.0030	-2454.99
0.9148,0.0852	-2524.44
0.9572,0.0428	-2479.76
0.9855,0.0145	-2482.10
0.9806,0.0194	-2465.80
0.9876,0.0124	-2460.70
0.9961,0.0039	-2454.99
0.9215,0.0785	-2531.52
0.9649,0.0351	-2495.21
0.9857,0.0143	-2473.67
0.9734,0.0266	-2474.18
0.9832,0.0168	-2461.39
0.9965,0.0035	-2449.32
0.9076,0.0924	-2536.36
0.9696,0.0304	-2491.96
0.9846,0.0154	-2465.30
0.9742,0.0258	-2488.62
0.9860,0.0140	-2469.44
0.9965,0.0035	-2449.32
0.9208,0.0792	-2514.34
0.9745,0.0255	-2481.36
0.9866,0.0134	-2465.13
0.9696,0.0304	-2488.50
0.9833,0.0167	-2469.52
0.9966,0.0034	-2449.30
0.9335,0.0665	-2521.39
0.9711,0.0289	-2470.93
0.9853,0.0147	-2461.03
0.9648,0.0352	-2485.28
0.9817,0.0183	-2473.61
0.9965,0.0035	-2454.98
0.9390,0.0610	-2532.42
0.9659,0.0341	-2491.90
0.9865,0.0135	-2465.15
0.9687,0.0313	-2491.93
0.9821,0.0179	-2465.59
0.9966,0.0034	-2454.98
0.9492,0.0508	-2510.45
0.9664,0.0336	-2508.69
0.9881,0.0119	-2478.31
0.9680,0.0320	-2471.46
0.9848,0.0152	-2465.29
0.9967,0.0033	-2460.68
0.9574,0.0426	-2504.64
0.9659,0.0341	-2488.55
0.9835,0.0165	-2473.60
0.9578,0.0422	-2517.13
0.9863,0.0137	-2469.43
0.9965,0.0035	-2454.98
0.9529,0.0471	-2489.51
0.9708,0.0292	-2488.51
0.9835,0.0165	-2473.60
0.9667,0.0333	-2481.79
0.9872,0.0128	-2465.10
0.9972,0.0028	-2454.99
0.9530,0.0470	-2477.46
0.9706,0.0294	-2488.50
0.9807,0.0193	-2469.70
0.9655,0.0345	-2495.23
0.9876,0.0124	-2451.94
0.9975,0.0025	-2449.05
0.9549,0.0451	-2489.31
0.9709,0.0291	-2481.49
0.9799,0.0201	-2458.12
0.9616,0.0384	-2475.87
0.9894,0.0106	-2478.62
0.9976,0.0024	-2455.03
0.9517,0.0483	-2492.64
0.9750,0.0250	-2470.36
0.9758,0.0242	-2473.94
0.9672,0.0328	-2498.67
0.9888,0.0112	-2460.55
0.9974,0.0026	-2460.97
0.9504,0.0496	-2495.71
0.9725,0.0275	-2474.29
0.9698,0.0302	-2474.62
0.9687,0.0313	-2474.76
0.9878,0.0122	-2456.27
0.9973,0.0027	-2455.00
0.9590,0.0410	-2504.70
0.9728,0.0272	-2481.41
0.9726,0.0274	-2484.98
0.9624,0.0376	-2478.98
0.9866,0.0134	-2473.73
0.9973,0.0027	-2449.08
0.9593,0.0407	-2485.75
0.9690,0.0310	-2467.83
0.9717,0.0283	-2477.92
0.9725,0.0275	-2484.98
0.9866,0.0134	-2478.03
0.9976,0.0024	-2449.01
0.9638,0.0362	-2478.79
0.9681,0.0319	-2495.33
0.9754,0.0246	-2477.66
0.9715,0.0285	-2474.40
0.9898,0.0102	-2469.60
0.9973,0.0027	-2449.09
0.9680,0.0320	-2478.28
0.9634,0.0366	-2498.47
0.9737,0.0263	-2463.31
0.9661,0.0339	-2481.85
0.9907,0.0093	-2465.03
0.9966,0.0034	-2466.34
0.9740,0.0260	-2474.12
0.9637,0.0363	-2491.92
0.9650,0.0350	-2478.64
0.9624,0.0376	-2498.43
0.9909,0.0091	-2465.04
0.9971,0.0029	-2449.15
0.9753,0.0247	-2481.34
0.9551,0.0449	-2504.58
0.9588,0.0412	-2488.96
0.9656,0.0344	-2481.90
0.9894,0.0106	-2460.48
0.9974,0.0026	-2455.01
0.9741,0.0259	-2495.87
0.9457,0.0543	-2504.70
0.9625,0.0375	-2501.69
0.9543,0.0457	-2504.56
0.9904,0.0096	-2451.13
0.9965,0.0035	-2454.98
0.9758,0.0242	-2477.64
0.9532,0.0468	-2507.57
0.9720,0.0280	-2484.98
0.9617,0.0383	-2495.20
0.9893,0.0107	-2469.55
0.9965,0.0035	-2460.63
0.9769,0.0231	-2481.34
0.9591,0.0409	-2495.24
0.9702,0.0298	-2481.54
0.9611,0.0389	-2508.03
0.9914,0.0086	-2460.32
0.9965,0.0035	-2454.98
0.9753,0.0247	-2477.67
0.9637,0.0363	-2498.48
0.9597,0.0403	-2488.89
0.9610,0.0390	-2488.80
0.9916,0.0084	-2450.76
0.9961,0.0039	-2449.45
0.9774,0.0226	-2466.29
0.9659,0.0341	-2475.18
0.9508,0.0492	-2486.80
0.9477,0.0523	-2507.53
0.9927,0.0073	-2460.27
0.9953,0.0047	-2455.03
0.9755,0.0245	-2459.23
0.9661,0.0339	-2495.25
0.9669,0.0331	-2491.90
0.9540,0.0460	-2501.53
0.9930,0.0070	-2460.26
0.9951,0.0049	-2465.69
0.9783,0.0217	-2473.75
0.9688,0.0312	-2481.62
0.9619,0.0381	-2485.51
0.9590,0.0410	-2492.09
0.9943,0.0057	-2455.13
0.9959,0.0041	-2465.99
0.9754,0.0246	-2470.31
0.9608,0.0392	-2485.61
0.9663,0.0337	-2485.18
0.9674,0.0326	-2471.55
0.9943,0.0057	-2455.13
0.9959,0.0041	-2449.49
0.9769,0.0231	-2477.60
0.9531,0.0469	-2492.51
0.9693,0.0307	-2488.50
0.9685,0.0315	-2485.07
0.9947,0.0053	-2455.08
0.9971,0.0029	-2449.16
0.9705,0.0295	-2491.99
0.9493,0.0507	-2495.80
0.9703,0.0297	-2464.10
0.9721,0.0279	-2477.88
0.9950,0.0050	-2449.76
0.9970,0.0030	-2460.78
0.9738,0.0262	-2499.45
0.9618,0.0382	-2475.84
0.9653,0.0347	-2481.92
0.9679,0.0321	-2498.72
0.9959,0.0041	-2449.49
0.9976,0.0024	-2455.04
0.9776,0.0224	-2500.24
0.9573,0.0427	-2492.19
0.9677,0.0323	-2474.91
0.9605,0.0395	-2495.21
0.9967,0.0033	-2460.70
0.9968,0.0032	-2449.23
0.9746,0.0254	-2477.71
0.9517,0.0483	-2492.64
0.9718,0.0282	-2488.52
0.9500,0.0500	-2516.35
0.9970,0.0030	-2454.99
0.9967,0.0033	-2449.26
0.9813,0.0187	-2481.53
0.9591,0.0409	-2507.86
0.9742,0.0258	-2484.99
0.9516,0.0484	-2495.62
0.9968,0.0032	-2449.23
0.9956,0.0044	-2460.44
0.9788,0.0212	-2458.39
0.9682,0.0318	-2491.92
0.9770,0.0230	-2466.35
0.9537,0.0463	-2492.46
0.9966,0.0034	-2449.31
0.9954,0.0046	-2449.65
0.9822,0.0178	-2473.60
0.9669,0.0331	-2495.27
0.9773,0.0227	-2477.59
0.9647,0.0353	-2491.90
0.9969,0.0031	-2466.53
0.9956,0.0044	-2460.43
0.9797,0.0203	-2462.04
0.9604,0.0396	-2482.46
0.9824,0.0176	-2473.60
0.9666,0.0334	-2471.70
0.9949,0.0051	-2455.07
0.9961,0.0039	-2460.52
0.9806,0.0194	-2477.56
0.9536,0.0464	-2504.56
0.9869,0.0131	-2456.48
0.9745,0.0255	-2488.64
0.9946,0.0054	-2460.31
0.9965,0.0035	-2449.32
0.9825,0.0175	-2493.75
0.9527,0.0473	-2489.54
0.9875,0.0125	-2465.08
0.9749,0.0251	-2474.03
0.9945,0.0055	-2460.31
0.9967,0.0033	-2460.68
0.9823,0.0177	-2477.62
0.9633,0.0367	-2498.46
0.9861,0.0139	-2482.22
0.9742,0.0258	-2481.36
0.9939,0.0061	-2465.36
0.9963,0.0037	-2449.38
0.9769,0.0231	-2470.11
0.9627,0.0373	-2485.44
0.9874,0.0126	-2469.45
0.9767,0.0233	-2485.08
0.9931,0.0069	-2450.33
0.9957,0.0043	-2455.01
0.9791,0.0209	-2469.85
0.9582,0.0418	-2495.27
0.9868,0.0132	-2456.49
0.9792,0.0208	-2473.70
0.9928,0.0072	-2460.26
0.9960,0.0040	-2466.04
0.9757,0.0243	-2462.88
0.9531,0.0469	-2489.50
0.9887,0.0113	-2465.03
0.9821,0.0179	-2469.60
0.9929,0.0071	-2465.21
0.9957,0.0043	-2465.90
0.9810,0.0190	-2469.68
0.9521,0.0479	-2495.59
0.9917,0.0083	-2455.52
0.9807,0.0193	-2481.49
0.9923,0.0077	-2469.99
0.9964,0.0036	-2454.98
0.9813,0.0187	-2465.70
0.9491,0.0509	-2501.67
0.9935,0.0065	-2455.23
0.9820,0.0180	-2489.60
0.9919,0.0081	-2460.29
0.9968,0.0032	-2454.98
0.9790,0.0210	-2469.87
0.9407,0.0593	-2491.14
0.9922,0.0078	-2455.44
0.9803,0.0197	-2473.65
0.9938,0.0062	-2460.27
0.9955,0.0045	-2449.61
0.9842,0.0158	-2465.34
0.9431,0.0569	-2507.63
0.9893,0.0107	-2478.61
0.9796,0.0204	-2465.94
0.9911,0.0089	-2474.47
0.9956,0.0044	-2460.43
0.9844,0.0156	-2469.47
0.9406,0.0594	-2502.21
0.9893,0.0107	-2465.02
0.9806,0.0194	-2461.87
0.9894,0.0106	-2460.49
0.9960,0.0040	-2460.51
0.9840,0.0160	-2477.73
0.9261,0.0739	-2521.49
0.9907,0.0093	-2451.04
0.9847,0.0153	-2469.46
0.9889,0.0111	-2460.54
0.9956,0.0044	-2455.01
0.9850,0.0150	-2477.82
0.9042,0.0958	-2538.69
0.9888,0.0112	-2460.54
0.9815,0.0185	-2465.67
0.9893,0.0107	-2460.50
0.9960,0.0040	-2449.49
0.9874,0.0126	-2469.45
0.8989,0.1011	-2541.03
0.9859,0.0141	-2460.95
0.9784,0.0216	-2466.12
0.9901,0.0099	-2455.81
0.9958,0.0042	-2455.00
0.9867,0.0133	-2469.44
0.9056,0.0944	-2525.10
0.9874,0.0126	-2460.73
0.9813,0.0187	-2473.62
0.9882,0.0118	-2465.05
0.9955,0.0045	-2455.02
0.9878,0.0122	-2465.07
0.9294,0.0706	-2536.88
0.9851,0.0149	-2461.07
0.9833,0.0167	-2461.36
0.9903,0.0097	-2474.28
0.9960,0.0040	-2454.99
0.9895,0.0105	-2460.48
0.9482,0.0518	-2495.89
0.9831,0.0169	-2465.47
0.9874,0.0126	-2460.72
0.9898,0.0102	-2469.60
0.9953,0.0047	-2455.03
0.9880,0.0120	-2473.88
0.9609,0.0391	-2508.01
0.9835,0.0165	-2465.42
0.9875,0.0125	-2465.08
0.9896,0.0104	-2469.57
0.9947,0.0053	-2455.09
0.9874,0.0126	-2473.81
0.9655,0.0345	-2491.90
0.9796,0.0204	-2469.81
0.9825,0.0175	-2473.60
0.9893,0.0107	-2460.50
0.9955,0.0045	-2455.01
0.9879,0.0121	-2473.87
0.9735,0.0265	-2503.00
0.9819,0.0181	-2477.60
0.9829,0.0171	-2461.43
0.9881,0.0119	-2451.80
0.9960,0.0040	-2454.99
0.9884,0.0116	-2473.94
0.9777,0.0223	-2477.58
0.9796,0.0204	-2458.18
0.9818,0.0182	-2461.64
0.9884,0.0116	-2456.16
0.9975,0.0025	-2449.05
0.9865,0.0135	-2469.43
0.9727,0.0273	-2477.83
0.9750,0.0250	-2492.33
0.9832,0.0168	-2465.46
0.9857,0.0143	-2469.44
0.9969,0.0031	-2449.21
0.9854,0.0146	-2473.66
0.9704,0.0296	-2478.04
0.9749,0.0251	-2474.03
0.9856,0.0144	-2469.44
0.9863,0.0137	-2456.60
0.9961,0.0039	-2449.44
0.9870,0.0130	-2465.11
0.9698,0.0302	-2478.09
0.9745,0.0255	-2492.29
0.9805,0.0195	-2481.48
0.9844,0.0156	-2465.33
0.9954,0.0046	-2449.64
0.9889,0.0111	-2465.03
0.9675,0.0325	-2471.55
0.9702,0.0298	-2464.12
0.9781,0.0219	-2477.57
0.9841,0.0159	-2457.10
0.9945,0.0055	-2460.31
0.9890,0.0110	-2451.53
0.9716,0.0284	-2477.92
0.9668,0.0332	-2502.01
0.9787,0.0213	-2492.87
0.9796,0.0204	-2469.81
0.9952,0.0048	-2455.04
0.9881,0.0119	-2473.89
0.9676,0.0324	-2498.70
0.9719,0.0281	-2488.53
0.9729,0.0271	-2481.40
0.9802,0.0198	-2461.94
0.9953,0.0047	-2460.39
0.9864,0.0136	-2469.43
0.9689,0.0311	-2495.38
0.9658,0.0342	-2485.22
0.9773,0.0227	-2481.35
0.9757,0.0243	-2462.88
0.9944,0.0056	-2465.48
0.9875,0.0125	-2469.45
0.9600,0.0400	-2482.51
0.9627,0.0373	-2495.19
0.9769,0.0231	-2488.83
0.9702,0.0298	-2495.46
0.9949,0.0051	-2455.07
0.9863,0.0137	-2456.60
0.9677,0.0323	-2485.11
0.9584,0.0416	-2495.26
0.9755,0.0245	-2473.98
0.9723,0.0277	-2488.54
0.9931,0.0069	-2460.26
0.9874,0.0126	-2469.45
0.9722,0.0278	-2467.22
0.9576,0.0424	-2485.94
0.9835,0.0165	-2469.51
0.9760,0.0240	-2485.05
0.9916,0.0084	-2455.54
0.9876,0.0124	-2478.22
0.9734,0.0266	-2481.38
0.9525,0.0475	-2498.56
0.9832,0.0168	-2481.73
0.9765,0.0235	-2477.61
0.9921,0.0079	-2455.45
0.9844,0.0156	-2477.76
0.9736,0.0264	-2470.55
0.9536,0.0464	-2507.58
0.9773,0.0227	-2481.35
0.9736,0.0264	-2477.77
0.9943,0.0057	-2449.97
0.9852,0.0148	-2469.45
0.9648,0.0352	-2485.28
0.9458,0.0542	-2501.84
0.9781,0.0219	-2466.17
0.9785,0.0215	-2462.29
0.9941,0.0059	-2450.02
0.9892,0.0108	-2460.51
0.9671,0.0329	-2508.80
0.9456,0.0544	-2504.70
0.9774,0.0226	-2481.35
0.9833,0.0167	-2465.44
0.9940,0.0060	-2465.39
0.9875,0.0125	-2469.45
0.9652,0.0348	-2491.90
0.9506,0.0494	-2498.65
0.9771,0.0229	-2477.59
0.9877,0.0123	-2469.46
0.9944,0.0056	-2470.65
0.9896,0.0104	-2455.90
0.9621,0.0379	-2504.89
0.9572,0.0428	-2498.41
0.9750,0.0250	-2474.03
0.9858,0.0142	-2477.91
0.9950,0.0050	-2460.35
0.9898,0.0102	-2465.02
0.9536,0.0464	-2495.49
0.9578,0.0422	-2485.92
0.9770,0.0230	-2473.85
0.9853,0.0147	-2469.45
0.9941,0.0059	-2455.15
0.9903,0.0097	-2474.27
0.9581,0.0419	-2492.14
0.9624,0.0376	-2478.99
0.9714,0.0286	-2470.89
0.9808,0.0192	-2469.69
0.9947,0.0053	-2449.86
0.9918,0.0082	-2469.90
0.9414,0.0586	-2516.03
0.9713,0.0287	-2488.52
0.9667,0.0333	-2475.05
0.9830,0.0170	-2469.54
