#isoforms=['ENSG00000211445.SE.0.A.up_ENSG00000211445.SE.0.A.SE1_ENSG00000211445.SE.0.A.dn','ENSG00000211445.SE.0.B.up_ENSG00000211445.SE.0.B.dn']	exon_lens=('ENSG00000211445.SE.0.A.up',136),('ENSG00000211445.SE.0.A.SE1',426),('ENSG00000211445.SE.0.A.dn',154),('ENSG00000211445.SE.0.B.up',179),('ENSG00000211445.SE.0.B.dn',154)	iters=5000	burn_in=500	lag=10	percent_accept=92.99	proposal_type=drift	counts=(0,0):349,(0,1):108,(1,0):9,(1,1):361	assigned_counts=0:20,1:458	chrom=chr5	strand=+	mRNA_starts=151020606,151020563	mRNA_ends=151025493,151025493
sampled_psi	log_score
0.0137,0.9863	-2776.17
0.0188,0.9812	-2829.94
0.0080,0.9920	-2789.83
0.0147,0.9853	-2780.73
0.0115,0.9885	-2797.79
0.0064,0.9936	-2775.87
0.0105,0.9895	-2784.44
0.0152,0.9848	-2776.76
0.0111,0.9889	-2784.42
0.0136,0.9864	-2788.97
0.0116,0.9884	-2788.88
0.0067,0.9933	-2770.71
0.0105,0.9895	-2802.63
0.0124,0.9876	-2780.12
0.0145,0.9855	-2805.99
0.0142,0.9858	-2797.54
0.0135,0.9865	-2780.39
0.0082,0.9918	-2784.92
0.0104,0.9896	-2779.89
0.0144,0.9856	-2806.01
0.0143,0.9857	-2827.17
0.0161,0.9839	-2810.05
0.0123,0.9877	-2793.27
0.0099,0.9901	-2789.10
0.0110,0.9890	-2793.42
0.0155,0.9845	-2793.49
0.0162,0.9838	-2801.83
0.0175,0.9825	-2802.00
0.0116,0.9884	-2775.54
0.0099,0.9901	-2775.29
0.0106,0.9894	-2784.44
0.0119,0.9881	-2784.46
0.0195,0.9805	-2810.25
0.0175,0.9825	-2802.01
0.0121,0.9879	-2784.48
0.0111,0.9889	-2802.38
0.0134,0.9866	-2793.25
0.0129,0.9871	-2793.25
0.0159,0.9841	-2789.44
0.0165,0.9835	-2789.59
0.0105,0.9895	-2793.52
0.0119,0.9881	-2780.04
0.0135,0.9865	-2814.71
0.0169,0.9831	-2797.84
0.0174,0.9826	-2797.96
0.0163,0.9837	-2797.74
0.0092,0.9908	-2798.67
0.0112,0.9888	-2775.46
0.0116,0.9884	-2784.44
0.0194,0.9806	-2786.70
0.0158,0.9842	-2789.41
0.0118,0.9882	-2788.88
0.0098,0.9902	-2798.35
0.0102,0.9898	-2775.31
0.0141,0.9859	-2780.54
0.0235,0.9765	-2807.47
0.0140,0.9860	-2814.56
0.0123,0.9877	-2788.88
0.0098,0.9902	-2793.74
0.0099,0.9901	-2779.89
0.0132,0.9868	-2801.88
0.0204,0.9796	-2802.68
0.0147,0.9853	-2793.36
0.0142,0.9858	-2797.55
0.0091,0.9909	-2784.64
0.0109,0.9891	-2797.94
0.0170,0.9830	-2801.92
0.0173,0.9827	-2789.84
0.0199,0.9801	-2810.32
0.0160,0.9840	-2810.05
0.0090,0.9910	-2789.37
0.0115,0.9885	-2802.26
0.0212,0.9788	-2791.42
0.0134,0.9866	-2793.25
0.0195,0.9805	-2825.93
0.0157,0.9843	-2797.66
0.0106,0.9894	-2798.05
0.0115,0.9885	-2779.98
0.0178,0.9822	-2814.08
0.0166,0.9834	-2777.36
0.0169,0.9831	-2793.78
0.0149,0.9851	-2789.19
0.0128,0.9872	-2801.93
0.0105,0.9895	-2784.44
0.0184,0.9816	-2794.23
0.0154,0.9846	-2785.16
0.0173,0.9827	-2797.93
0.0118,0.9882	-2788.88
0.0109,0.9891	-2784.43
0.0091,0.9909	-2789.33
0.0153,0.9847	-2785.13
0.0151,0.9849	-2814.30
0.0176,0.9824	-2810.06
0.0123,0.9877	-2797.64
0.0115,0.9885	-2775.53
0.0096,0.9904	-2798.44
0.0158,0.9842	-2801.81
0.0174,0.9826	-2797.94
0.0140,0.9860	-2784.78
0.0132,0.9868	-2784.62
0.0114,0.9886	-2797.81
0.0117,0.9883	-2797.75
0.0118,0.9882	-2780.02
0.0186,0.9814	-2798.23
0.0167,0.9833	-2797.81
0.0128,0.9872	-2797.59
0.0092,0.9908	-2789.31
0.0100,0.9900	-2789.07
0.0131,0.9869	-2797.57
0.0200,0.9800	-2810.35
0.0175,0.9825	-2793.93
0.0121,0.9879	-2802.07
0.0101,0.9899	-2798.23
0.0086,0.9914	-2780.03
0.0119,0.9881	-2806.57
0.0225,0.9775	-2825.99
0.0137,0.9863	-2797.54
0.0127,0.9873	-2797.60
0.0085,0.9915	-2780.06
0.0068,0.9932	-2770.69
0.0146,0.9854	-2797.56
0.0214,0.9786	-2810.61
0.0109,0.9891	-2784.43
0.0107,0.9893	-2784.43
0.0071,0.9929	-2790.38
0.0069,0.9931	-2795.54
0.0181,0.9819	-2810.09
0.0203,0.9797	-2806.53
0.0095,0.9905	-2779.91
0.0115,0.9885	-2779.99
0.0084,0.9916	-2784.83
0.0084,0.9916	-2784.84
0.0238,0.9762	-2818.71
0.0155,0.9845	-2801.78
0.0101,0.9899	-2793.65
0.0113,0.9887	-2815.76
0.0077,0.9923	-2785.11
0.0075,0.9925	-2780.34
0.0225,0.9775	-2814.68
0.0172,0.9828	-2801.95
0.0122,0.9878	-2780.09
0.0128,0.9872	-2780.22
0.0095,0.9905	-2793.87
0.0082,0.9918	-2784.92
0.0197,0.9803	-2806.38
0.0165,0.9835	-2789.61
0.0117,0.9883	-2780.01
0.0131,0.9869	-2797.57
0.0085,0.9915	-2780.05
0.0090,0.9910	-2784.68
0.0172,0.9828	-2797.90
0.0164,0.9836	-2793.67
0.0113,0.9887	-2779.96
0.0197,0.9803	-2814.19
0.0095,0.9905	-2793.85
0.0097,0.9903	-2784.53
0.0181,0.9819	-2810.09
0.0187,0.9813	-2806.19
0.0087,0.9913	-2784.76
0.0176,0.9824	-2806.04
0.0074,0.9926	-2775.48
0.0098,0.9902	-2793.73
0.0196,0.9804	-2814.19
0.0201,0.9799	-2794.80
0.0081,0.9919	-2780.16
0.0155,0.9845	-2789.32
0.0095,0.9905	-2779.91
0.0101,0.9899	-2784.47
0.0191,0.9809	-2806.26
0.0186,0.9814	-2814.10
0.0078,0.9922	-2775.39
0.0168,0.9832	-2810.04
0.0097,0.9903	-2789.15
0.0115,0.9885	-2797.80
0.0211,0.9789	-2795.23
0.0135,0.9865	-2810.44
0.0108,0.9892	-2784.43
0.0169,0.9831	-2801.92
0.0084,0.9916	-2799.15
0.0117,0.9883	-2780.00
0.0184,0.9816	-2778.33
0.0105,0.9895	-2788.99
0.0127,0.9873	-2780.19
0.0141,0.9859	-2784.80
0.0119,0.9881	-2793.29
0.0102,0.9898	-2807.33
0.0213,0.9787	-2799.11
0.0104,0.9896	-2789.01
0.0128,0.9872	-2801.94
0.0152,0.9848	-2793.44
0.0134,0.9866	-2797.55
0.0140,0.9860	-2797.54
0.0195,0.9805	-2814.17
0.0131,0.9869	-2788.92
0.0106,0.9894	-2779.90
0.0168,0.9832	-2801.89
0.0122,0.9878	-2793.27
0.0153,0.9847	-2801.78
0.0185,0.9815	-2802.19
0.0118,0.9882	-2802.17
0.0112,0.9888	-2788.90
0.0156,0.9844	-2785.20
0.0133,0.9867	-2780.34
0.0156,0.9844	-2789.35
0.0171,0.9829	-2789.80
0.0160,0.9840	-2789.47
0.0096,0.9904	-2784.55
0.0189,0.9811	-2810.17
0.0170,0.9830	-2805.98
0.0148,0.9852	-2780.78
0.0202,0.9798	-2806.50
0.0124,0.9876	-2780.13
0.0095,0.9905	-2779.91
0.0204,0.9796	-2791.07
0.0181,0.9819	-2810.10
0.0133,0.9867	-2784.64
0.0228,0.9772	-2803.48
0.0137,0.9863	-2793.27
0.0095,0.9905	-2775.27
0.0195,0.9805	-2818.09
0.0187,0.9813	-2786.37
0.0168,0.9832	-2801.90
0.0249,0.9751	-2811.65
0.0123,0.9877	-2771.33
0.0111,0.9889	-2797.90
0.0221,0.9779	-2807.01
0.0165,0.9835	-2797.78
0.0182,0.9818	-2798.13
0.0191,0.9809	-2818.08
0.0150,0.9850	-2797.59
0.0111,0.9889	-2779.94
0.0208,0.9792	-2802.79
0.0154,0.9846	-2780.99
0.0186,0.9814	-2802.22
0.0193,0.9807	-2794.51
0.0133,0.9867	-2797.56
0.0106,0.9894	-2784.44
0.0194,0.9806	-2798.48
0.0179,0.9821	-2798.07
0.0161,0.9839	-2801.83
0.0162,0.9838	-2789.53
0.0125,0.9875	-2797.63
0.0137,0.9863	-2788.99
0.0188,0.9812	-2798.30
0.0169,0.9831	-2810.04
0.0206,0.9794	-2814.31
0.0168,0.9832	-2810.04
0.0161,0.9839	-2789.50
0.0102,0.9898	-2798.21
0.0208,0.9792	-2825.90
0.0200,0.9800	-2806.46
0.0215,0.9785	-2803.03
0.0198,0.9802	-2802.51
0.0160,0.9840	-2793.57
0.0115,0.9885	-2784.43
0.0163,0.9837	-2810.04
0.0218,0.9782	-2803.10
0.0181,0.9819	-2790.11
0.0142,0.9858	-2784.82
0.0151,0.9849	-2785.07
0.0115,0.9885	-2793.34
0.0134,0.9866	-2788.95
0.0207,0.9793	-2802.75
0.0149,0.9851	-2805.96
0.0183,0.9817	-2806.13
0.0128,0.9872	-2797.59
0.0130,0.9870	-2793.25
0.0107,0.9893	-2775.38
0.0173,0.9827	-2801.96
0.0145,0.9855	-2789.12
0.0147,0.9853	-2810.19
0.0118,0.9882	-2793.31
0.0141,0.9859	-2793.29
0.0117,0.9883	-2802.18
0.0183,0.9817	-2802.14
0.0136,0.9864	-2810.39
0.0132,0.9868	-2793.25
0.0146,0.9854	-2801.77
0.0144,0.9856	-2797.55
0.0133,0.9867	-2797.56
0.0169,0.9831	-2818.16
0.0119,0.9881	-2784.46
0.0158,0.9842	-2805.93
0.0136,0.9864	-2793.26
0.0142,0.9858	-2784.83
0.0119,0.9881	-2802.13
0.0187,0.9813	-2798.26
0.0119,0.9881	-2797.72
0.0168,0.9832	-2793.77
0.0164,0.9836	-2818.23
0.0139,0.9861	-2789.02
0.0128,0.9872	-2793.25
0.0156,0.9844	-2781.07
0.0113,0.9887	-2779.95
0.0163,0.9837	-2793.63
0.0161,0.9839	-2793.59
0.0140,0.9860	-2789.03
0.0124,0.9876	-2793.26
0.0147,0.9853	-2793.36
0.0114,0.9886	-2788.90
0.0148,0.9852	-2797.57
0.0146,0.9854	-2780.72
0.0135,0.9865	-2797.55
0.0122,0.9878	-2793.27
0.0126,0.9874	-2788.89
0.0114,0.9886	-2784.43
0.0184,0.9816	-2814.10
0.0199,0.9801	-2794.73
0.0118,0.9882	-2802.16
0.0125,0.9875	-2788.89
0.0111,0.9889	-2775.45
0.0136,0.9864	-2784.69
0.0161,0.9839	-2830.62
0.0157,0.9843	-2776.96
0.0130,0.9870	-2784.59
0.0122,0.9878	-2788.88
0.0118,0.9882	-2780.03
0.0114,0.9886	-2793.36
0.0172,0.9828	-2785.77
0.0128,0.9872	-2788.90
0.0134,0.9866	-2793.25
0.0120,0.9880	-2780.06
0.0111,0.9889	-2797.90
0.0125,0.9875	-2780.14
0.0187,0.9813	-2798.27
0.0132,0.9868	-2784.61
0.0160,0.9840	-2785.32
0.0118,0.9882	-2802.15
0.0134,0.9866	-2780.36
0.0125,0.9875	-2788.88
0.0187,0.9813	-2786.40
0.0130,0.9870	-2797.58
0.0130,0.9870	-2801.91
0.0103,0.9897	-2770.76
0.0118,0.9882	-2788.88
0.0149,0.9851	-2801.77
0.0178,0.9822	-2806.06
0.0126,0.9874	-2771.44
0.0130,0.9870	-2775.93
0.0078,0.9922	-2785.10
0.0107,0.9893	-2798.00
0.0150,0.9850	-2789.21
0.0123,0.9877	-2784.50
0.0130,0.9870	-2784.59
0.0104,0.9896	-2775.33
0.0071,0.9929	-2780.50
0.0119,0.9881	-2788.88
0.0114,0.9886	-2784.43
0.0165,0.9835	-2801.86
0.0143,0.9857	-2776.39
0.0112,0.9888	-2793.39
0.0069,0.9931	-2770.67
0.0104,0.9896	-2784.45
0.0105,0.9895	-2784.44
0.0157,0.9843	-2785.25
0.0109,0.9891	-2775.41
0.0093,0.9907	-2775.26
0.0063,0.9937	-2780.96
0.0093,0.9907	-2784.59
0.0090,0.9910	-2789.37
0.0191,0.9809	-2802.32
0.0129,0.9871	-2788.91
0.0095,0.9905	-2779.92
0.0083,0.9917	-2770.53
0.0113,0.9887	-2779.96
0.0103,0.9897	-2784.46
0.0181,0.9819	-2802.10
0.0167,0.9833	-2805.96
0.0111,0.9889	-2779.94
0.0080,0.9920	-2780.18
0.0119,0.9881	-2775.63
0.0103,0.9897	-2798.14
0.0185,0.9815	-2802.19
0.0141,0.9859	-2797.54
0.0110,0.9890	-2784.42
0.0062,0.9938	-2775.97
0.0129,0.9871	-2801.91
0.0105,0.9895	-2793.53
0.0198,0.9802	-2794.69
0.0140,0.9860	-2789.03
0.0114,0.9886	-2793.35
0.0066,0.9934	-2785.80
0.0133,0.9867	-2793.25
0.0127,0.9873	-2793.25
0.0198,0.9802	-2802.49
0.0112,0.9888	-2784.43
0.0123,0.9877	-2780.10
0.0081,0.9919	-2775.34
0.0161,0.9839	-2801.83
0.0164,0.9836	-2793.67
0.0175,0.9825	-2814.08
0.0117,0.9883	-2784.44
0.0112,0.9888	-2775.47
0.0081,0.9919	-2789.78
0.0145,0.9855	-2789.12
0.0160,0.9840	-2805.93
0.0161,0.9839	-2801.83
0.0103,0.9897	-2779.89
0.0125,0.9875	-2797.62
0.0092,0.9908	-2779.94
0.0160,0.9840	-2793.57
0.0184,0.9816	-2794.22
0.0116,0.9884	-2788.88
0.0113,0.9887	-2784.43
0.0154,0.9846	-2780.99
0.0082,0.9918	-2780.12
0.0125,0.9875	-2806.36
0.0189,0.9811	-2802.28
0.0103,0.9897	-2775.32
0.0125,0.9875	-2784.51
0.0137,0.9863	-2806.10
0.0072,0.9928	-2780.48
0.0139,0.9861	-2801.80
0.0184,0.9816	-2798.18
0.0083,0.9917	-2780.09
0.0093,0.9907	-2775.26
0.0148,0.9852	-2780.78
0.0109,0.9891	-2788.94
0.0154,0.9846	-2810.09
0.0174,0.9826	-2801.98
0.0086,0.9914	-2789.53
0.0103,0.9897	-2779.89
0.0121,0.9879	-2793.28
0.0087,0.9913	-2784.76
0.0177,0.9823	-2814.08
0.0131,0.9869	-2788.92
0.0070,0.9930	-2780.57
0.0102,0.9898	-2793.63
0.0099,0.9901	-2779.89
0.0083,0.9917	-2780.09
0.0175,0.9825	-2810.05
0.0122,0.9878	-2784.48
0.0050,0.9950	-2776.80
0.0096,0.9904	-2803.08
0.0092,0.9908	-2784.62
0.0102,0.9898	-2784.47
0.0203,0.9797	-2791.00
0.0151,0.9849	-2793.42
0.0057,0.9943	-2776.25
0.0100,0.9900	-2779.89
0.0078,0.9922	-2799.60
0.0095,0.9905	-2779.91
0.0185,0.9815	-2778.38
0.0134,0.9866	-2793.25
0.0060,0.9940	-2791.43
0.0130,0.9870	-2788.91
0.0084,0.9916	-2784.85
0.0104,0.9896	-2789.00
0.0197,0.9803	-2790.76
0.0153,0.9847	-2793.45
0.0065,0.9935	-2775.80
0.0143,0.9857	-2810.25
0.0087,0.9913	-2794.22
0.0111,0.9889	-2788.91
0.0180,0.9820	-2778.12
0.0168,0.9832	-2793.76
0.0062,0.9938	-2775.94
0.0174,0.9826	-2789.87
0.0074,0.9926	-2770.59
0.0121,0.9879	-2784.47
0.0180,0.9820	-2782.10
0.0168,0.9832	-2797.83
0.0074,0.9926	-2804.84
0.0206,0.9794	-2806.58
0.0074,0.9926	-2790.17
0.0144,0.9856	-2784.88
0.0194,0.9806	-2786.69
0.0162,0.9838	-2801.83
0.0085,0.9915	-2780.05
0.0151,0.9849	-2805.95
0.0094,0.9906	-2784.58
0.0147,0.9853	-2810.19
0.0119,0.9881	-2793.30
0.0154,0.9846	-2780.99
0.0128,0.9872	-2771.50
0.0172,0.9828	-2793.85
0.0079,0.9921	-2780.21
0.0126,0.9874	-2788.89
0.0125,0.9875	-2784.51
0.0213,0.9787	-2822.09
0.0135,0.9865	-2797.55
0.0172,0.9828	-2810.04
0.0091,0.9909	-2779.96
0.0131,0.9869	-2775.97
0.0119,0.9881	-2793.29
0.0182,0.9818	-2790.14
0.0152,0.9848	-2805.95
0.0178,0.9822	-2806.06
0.0084,0.9916	-2808.67
0.0130,0.9870	-2784.58
0.0106,0.9894	-2784.44
0.0195,0.9805	-2806.35
0.0147,0.9853	-2793.36
0.0169,0.9831	-2785.67
0.0093,0.9907	-2779.93
0.0114,0.9886	-2779.96
0.0136,0.9864	-2788.98
0.0173,0.9827	-2806.00
0.0138,0.9862	-2793.28
0.0180,0.9820	-2798.08
0.0087,0.9913	-2789.48
0.0118,0.9882	-2780.02
0.0151,0.9849	-2785.05
0.0153,0.9847	-2780.97
0.0142,0.9858	-2789.07
0.0212,0.9788	-2791.43
0.0104,0.9896	-2775.34
0.0124,0.9876	-2815.16
0.0167,0.9833	-2797.81
0.0140,0.9860	-2780.52
0.0161,0.9839	-2789.50
0.0203,0.9797	-2806.51
0.0105,0.9895	-2784.44
0.0151,0.9849	-2801.77
0.0223,0.9777	-2810.84
0.0153,0.9847	-2801.78
0.0192,0.9808	-2794.48
0.0200,0.9800	-2794.79
0.0087,0.9913	-2780.02
0.0142,0.9858	-2801.78
0.0176,0.9824	-2802.01
0.0100,0.9900	-2775.29
0.0174,0.9826	-2801.98
0.0174,0.9826	-2789.87
0.0076,0.9924	-2794.94
0.0131,0.9869	-2793.25
0.0230,0.9770	-2811.04
0.0082,0.9918	-2784.90
0.0180,0.9820	-2798.08
0.0177,0.9823	-2814.08
0.0065,0.9935	-2780.83
0.0157,0.9843	-2793.52
0.0191,0.9809	-2798.37
0.0074,0.9926	-2770.58
0.0126,0.9874	-2788.89
0.0163,0.9837	-2810.04
0.0075,0.9925	-2775.47
0.0141,0.9859	-2789.06
0.0175,0.9825	-2802.00
0.0072,0.9928	-2775.54
0.0103,0.9897	-2779.89
0.0179,0.9821	-2802.07
0.0097,0.9903	-2784.52
0.0165,0.9835	-2797.77
0.0172,0.9828	-2777.68
0.0085,0.9915	-2780.06
0.0115,0.9885	-2797.79
0.0160,0.9840	-2781.24
0.0117,0.9883	-2780.00
0.0112,0.9888	-2793.39
0.0194,0.9806	-2810.24
0.0102,0.9898	-2779.89
0.0112,0.9888	-2779.95
0.0146,0.9854	-2789.14
0.0120,0.9880	-2780.06
0.0106,0.9894	-2788.97
0.0171,0.9829	-2797.88
0.0135,0.9865	-2814.73
0.0102,0.9898	-2789.04
0.0115,0.9885	-2784.43
0.0112,0.9888	-2797.87
0.0110,0.9890	-2784.42
0.0158,0.9842	-2785.29
0.0149,0.9851	-2785.00
0.0095,0.9905	-2770.62
0.0136,0.9864	-2793.26
0.0119,0.9881	-2784.45
0.0100,0.9900	-2779.89
0.0166,0.9834	-2785.56
0.0135,0.9865	-2810.42
0.0098,0.9902	-2798.35
0.0135,0.9865	-2788.97
0.0103,0.9897	-2779.89
0.0141,0.9859	-2789.04
0.0145,0.9855	-2780.67
0.0133,0.9867	-2801.86
0.0090,0.9910	-2779.97
0.0116,0.9884	-2780.00
0.0116,0.9884	-2793.33
0.0146,0.9854	-2776.48
0.0140,0.9860	-2793.29
0.0172,0.9828	-2797.91
0.0103,0.9897	-2779.89
0.0129,0.9871	-2793.25
0.0109,0.9891	-2779.92
0.0133,0.9867	-2797.56
0.0163,0.9837	-2797.74
0.0189,0.9811	-2810.18
0.0117,0.9883	-2793.31
0.0111,0.9889	-2788.91
0.0108,0.9892	-2784.43
0.0158,0.9842	-2789.42
0.0169,0.9831	-2789.73
0.0196,0.9804	-2802.44
0.0118,0.9882	-2784.45
0.0111,0.9889	-2793.40
0.0124,0.9876	-2784.50
0.0183,0.9817	-2798.16
0.0179,0.9821	-2806.07
0.0194,0.9806	-2790.62
0.0108,0.9892	-2793.47
0.0117,0.9883	-2793.32
0.0126,0.9874	-2775.80
0.0182,0.9818	-2802.13
0.0156,0.9844	-2785.20
0.0152,0.9848	-2789.27
0.0094,0.9906	-2793.89
0.0130,0.9870	-2793.25
0.0119,0.9881	-2802.14
0.0150,0.9850	-2780.85
0.0144,0.9856	-2801.78
0.0134,0.9866	-2793.25
0.0117,0.9883	-2802.18
0.0132,0.9868	-2784.63
0.0122,0.9878	-2806.44
0.0135,0.9865	-2793.26
0.0129,0.9871	-2780.24
0.0110,0.9890	-2793.42
0.0123,0.9877	-2802.05
0.0133,0.9867	-2788.95
0.0130,0.9870	-2797.57
0.0105,0.9895	-2788.99
0.0119,0.9881	-2793.29
0.0127,0.9873	-2784.54
0.0136,0.9864	-2788.98
0.0120,0.9880	-2802.12
0.0157,0.9843	-2805.93
0.0127,0.9873	-2780.19
0.0121,0.9879	-2797.68
0.0155,0.9845	-2810.09
0.0137,0.9863	-2810.38
0.0148,0.9852	-2784.96
0.0142,0.9858	-2797.55
0.0145,0.9855	-2780.69
0.0114,0.9886	-2788.89
0.0182,0.9818	-2794.16
0.0147,0.9853	-2793.36
0.0161,0.9839	-2810.05
0.0157,0.9843	-2805.93
0.0147,0.9853	-2801.77
0.0153,0.9847	-2797.61
0.0152,0.9848	-2793.43
0.0151,0.9849	-2785.05
0.0147,0.9853	-2789.15
0.0182,0.9818	-2814.09
0.0108,0.9892	-2788.95
0.0122,0.9878	-2775.71
0.0123,0.9877	-2793.27
0.0150,0.9850	-2789.22
0.0193,0.9807	-2790.57
0.0191,0.9809	-2794.45
0.0102,0.9898	-2784.47
0.0148,0.9852	-2784.99
0.0139,0.9861	-2801.80
0.0134,0.9866	-2788.95
0.0184,0.9816	-2802.17
0.0173,0.9827	-2797.92
0.0115,0.9885	-2779.97
0.0158,0.9842	-2814.19
0.0113,0.9887	-2802.33
0.0118,0.9882	-2788.88
0.0224,0.9776	-2799.54
0.0159,0.9841	-2793.56
0.0097,0.9903	-2798.41
0.0137,0.9863	-2793.27
0.0089,0.9911	-2775.27
0.0149,0.9851	-2810.16
0.0203,0.9797	-2794.89
0.0160,0.9840	-2797.70
0.0114,0.9886	-2771.03
0.0159,0.9841	-2805.93
0.0102,0.9898	-2807.31
0.0149,0.9851	-2805.96
0.0192,0.9808	-2829.88
0.0131,0.9869	-2788.92
0.0151,0.9849	-2793.42
0.0124,0.9876	-2788.88
0.0101,0.9899	-2779.89
0.0147,0.9853	-2784.96
0.0156,0.9844	-2789.37
0.0129,0.9871	-2788.91
0.0132,0.9868	-2797.56
0.0124,0.9876	-2784.50
0.0094,0.9906	-2784.58
0.0189,0.9811	-2798.31
0.0144,0.9856	-2789.10
0.0150,0.9850	-2789.21
0.0122,0.9878	-2784.48
0.0107,0.9893	-2788.96
0.0113,0.9887	-2811.25
0.0160,0.9840	-2805.94
0.0148,0.9852	-2797.57
0.0114,0.9886	-2793.35
0.0124,0.9876	-2793.26
0.0121,0.9879	-2784.48
0.0148,0.9852	-2801.77
0.0227,0.9773	-2799.68
0.0157,0.9843	-2801.79
0.0120,0.9880	-2793.28
0.0112,0.9888	-2788.90
0.0132,0.9868	-2793.25
0.0169,0.9831	-2793.79
0.0149,0.9851	-2780.81
0.0173,0.9827	-2810.05
0.0118,0.9882	-2788.88
0.0092,0.9908	-2798.64
0.0157,0.9843	-2814.21
0.0169,0.9831	-2793.78
0.0162,0.9838	-2801.84
0.0197,0.9803	-2794.65
0.0126,0.9874	-2793.25
0.0117,0.9883	-2788.88
0.0177,0.9823	-2793.99
0.0193,0.9807	-2806.30
0.0152,0.9848	-2793.44
0.0204,0.9796	-2798.79
0.0108,0.9892	-2797.99
0.0157,0.9843	-2805.93
0.0161,0.9839	-2793.61
0.0167,0.9833	-2797.81
0.0168,0.9832	-2797.83
0.0245,0.9755	-2804.13
0.0084,0.9916	-2775.30
0.0190,0.9810	-2798.36
0.0138,0.9862	-2784.74
0.0174,0.9826	-2806.02
0.0127,0.9873	-2784.55
0.0330,0.9670	-2822.01
0.0101,0.9899	-2784.47
0.0222,0.9778	-2814.60
0.0103,0.9897	-2784.45
0.0169,0.9831	-2797.85
0.0132,0.9868	-2788.93
0.0295,0.9705	-2817.04
0.0093,0.9907	-2789.27
0.0224,0.9776	-2818.43
0.0131,0.9869	-2780.28
0.0158,0.9842	-2793.53
0.0125,0.9875	-2788.89
0.0215,0.9785	-2814.47
0.0088,0.9912	-2794.15
0.0207,0.9793	-2791.17
0.0121,0.9879	-2788.88
0.0157,0.9843	-2789.38
0.0113,0.9887	-2802.33
0.0225,0.9775	-2810.89
0.0088,0.9912	-2794.19
0.0193,0.9807	-2786.65
0.0151,0.9849	-2785.07
0.0191,0.9809	-2806.26
0.0131,0.9869	-2806.21
0.0185,0.9815	-2810.13
0.0099,0.9901	-2775.29
0.0194,0.9806	-2810.25
0.0145,0.9855	-2780.67
0.0155,0.9845	-2793.48
0.0124,0.9876	-2806.39
0.0183,0.9817	-2794.18
0.0107,0.9893	-2788.96
0.0197,0.9803	-2798.55
0.0146,0.9854	-2801.77
0.0148,0.9852	-2797.57
0.0118,0.9882	-2793.30
0.0198,0.9802	-2810.30
0.0099,0.9901	-2789.11
0.0161,0.9839	-2805.94
0.0168,0.9832	-2814.11
0.0132,0.9868	-2788.93
0.0136,0.9864	-2788.97
0.0167,0.9833	-2793.74
0.0101,0.9899	-2821.13
0.0184,0.9816	-2794.21
0.0203,0.9797	-2810.40
0.0142,0.9858	-2810.27
0.0124,0.9876	-2780.12
0.0160,0.9840	-2810.06
0.0075,0.9925	-2790.13
0.0161,0.9839	-2801.83
0.0222,0.9778	-2825.97
0.0138,0.9862	-2793.28
0.0114,0.9886	-2788.89
0.0146,0.9854	-2789.14
0.0059,0.9941	-2776.12
0.0161,0.9839	-2785.36
0.0211,0.9789	-2799.03
0.0135,0.9865	-2801.84
0.0127,0.9873	-2793.25
0.0146,0.9854	-2801.77
0.0084,0.9916	-2780.07
0.0159,0.9841	-2793.57
0.0250,0.9750	-2804.38
0.0146,0.9854	-2805.98
0.0130,0.9870	-2780.25
0.0152,0.9848	-2797.61
0.0104,0.9896	-2784.45
0.0152,0.9848	-2805.94
0.0208,0.9792	-2798.94
0.0128,0.9872	-2801.94
0.0130,0.9870	-2801.90
0.0160,0.9840	-2801.81
0.0136,0.9864	-2793.26
0.0176,0.9824	-2789.95
0.0185,0.9815	-2798.21
0.0158,0.9842	-2785.28
0.0147,0.9853	-2789.15
0.0137,0.9863	-2780.44
0.0139,0.9861	-2801.81
0.0149,0.9851	-2789.20
0.0174,0.9826	-2785.87
0.0140,0.9860	-2797.54
0.0141,0.9859	-2789.05
0.0099,0.9901	-2798.29
0.0113,0.9887	-2779.96
0.0164,0.9836	-2789.56
0.0213,0.9787	-2795.28
0.0159,0.9841	-2797.68
0.0145,0.9855	-2797.55
0.0098,0.9902	-2789.12
0.0099,0.9901	-2798.30
0.0145,0.9855	-2789.11
0.0228,0.9772	-2803.46
0.0130,0.9870	-2801.91
0.0132,0.9868	-2776.00
0.0094,0.9906	-2779.92
0.0102,0.9898	-2798.17
0.0137,0.9863	-2788.99
0.0201,0.9799	-2794.81
0.0141,0.9859	-2784.80
0.0134,0.9866	-2780.36
0.0099,0.9901	-2789.10
0.0095,0.9905	-2779.91
0.0157,0.9843	-2793.51
0.0229,0.9771	-2803.51
0.0145,0.9855	-2806.00
0.0133,0.9867	-2793.25
0.0090,0.9910	-2779.96
0.0111,0.9889	-2779.94
0.0143,0.9857	-2784.84
0.0224,0.9776	-2807.10
0.0158,0.9842	-2789.41
0.0136,0.9864	-2788.98
0.0096,0.9904	-2775.27
0.0102,0.9898	-2779.89
0.0152,0.9848	-2805.95
0.0248,0.9752	-2833.65
0.0157,0.9843	-2797.65
0.0123,0.9877	-2780.11
0.0089,0.9911	-2798.82
0.0096,0.9904	-2779.91
0.0155,0.9845	-2781.02
0.0202,0.9798	-2806.50
0.0150,0.9850	-2810.14
0.0113,0.9887	-2779.95
0.0104,0.9896	-2789.01
0.0093,0.9907	-2775.26
0.0171,0.9829	-2818.14
0.0210,0.9790	-2822.06
0.0190,0.9810	-2782.57
0.0107,0.9893	-2793.48
0.0129,0.9871	-2788.91
0.0099,0.9901	-2789.09
0.0143,0.9857	-2784.85
0.0193,0.9807	-2782.75
0.0164,0.9836	-2810.04
0.0120,0.9880	-2797.70
0.0137,0.9863	-2793.27
0.0079,0.9921	-2780.20
0.0113,0.9887	-2802.32
0.0163,0.9837	-2810.04
0.0169,0.9831	-2797.84
0.0121,0.9879	-2815.29
0.0117,0.9883	-2784.44
0.0083,0.9917	-2775.31
0.0115,0.9885	-2797.79
0.0160,0.9840	-2797.70
0.0165,0.9835	-2801.86
0.0128,0.9872	-2788.90
0.0130,0.9870	-2780.25
0.0112,0.9888	-2784.43
0.0115,0.9885	-2793.34
0.0137,0.9863	-2793.27
0.0161,0.9839	-2793.60
0.0114,0.9886	-2784.43
0.0144,0.9856	-2806.00
0.0106,0.9894	-2788.98
0.0139,0.9861	-2801.80
0.0163,0.9837	-2801.84
0.0146,0.9854	-2801.77
0.0097,0.9903	-2789.15
0.0118,0.9882	-2780.02
0.0099,0.9901	-2793.70
0.0140,0.9860	-2806.05
0.0159,0.9841	-2785.30
0.0110,0.9890	-2793.42
0.0103,0.9897	-2770.76
0.0096,0.9904	-2789.17
0.0115,0.9885	-2779.98
0.0138,0.9862	-2810.35
0.0144,0.9856	-2801.78
0.0129,0.9871	-2806.25
0.0107,0.9893	-2770.85
0.0083,0.9917	-2780.09
0.0123,0.9877	-2793.26
0.0163,0.9837	-2785.43
0.0130,0.9870	-2793.25
0.0140,0.9860	-2793.29
0.0106,0.9894	-2779.90
0.0085,0.9915	-2780.06
0.0116,0.9884	-2797.77
0.0157,0.9843	-2810.07
0.0142,0.9858	-2789.07
0.0170,0.9830	-2805.98
0.0095,0.9905	-2775.27
0.0093,0.9907	-2793.95
0.0125,0.9875	-2784.52
0.0160,0.9840	-2789.45
0.0139,0.9861	-2784.76
0.0148,0.9852	-2793.38
0.0088,0.9912	-2780.00
0.0097,0.9903	-2798.40
0.0134,0.9866	-2788.96
0.0197,0.9803	-2810.29
0.0134,0.9866	-2806.15
0.0134,0.9866	-2788.95
0.0097,0.9903	-2779.90
0.0092,0.9908	-2789.31
0.0131,0.9869	-2797.57
0.0206,0.9794	-2802.73
0.0128,0.9872	-2793.25
0.0119,0.9881	-2780.04
0.0110,0.9890	-2779.93
0.0117,0.9883	-2780.00
0.0117,0.9883	-2780.00
0.0190,0.9810	-2814.13
0.0119,0.9881	-2793.30
0.0169,0.9831	-2789.72
0.0098,0.9902	-2779.90
0.0137,0.9863	-2780.43
0.0123,0.9877	-2797.65
0.0200,0.9800	-2802.55
0.0100,0.9900	-2793.68
0.0142,0.9858	-2806.02
0.0076,0.9924	-2790.06
0.0133,0.9867	-2784.64
0.0146,0.9854	-2793.35
0.0215,0.9785	-2822.10
0.0116,0.9884	-2811.09
0.0126,0.9874	-2801.96
0.0078,0.9922	-2775.39
0.0143,0.9857	-2784.84
0.0145,0.9855	-2789.12
0.0157,0.9843	-2797.66
0.0111,0.9889	-2779.93
0.0100,0.9900	-2784.48
0.0072,0.9928	-2785.37
0.0147,0.9853	-2793.36
0.0146,0.9854	-2789.14
0.0164,0.9836	-2805.95
0.0115,0.9885	-2793.34
0.0107,0.9893	-2784.43
0.0065,0.9935	-2780.82
0.0175,0.9825	-2797.97
0.0148,0.9852	-2776.57
0.0143,0.9857	-2793.32
0.0086,0.9914	-2780.02
0.0108,0.9892	-2788.95
0.0077,0.9923	-2789.97
0.0199,0.9801	-2798.62
0.0149,0.9851	-2797.58
0.0138,0.9862	-2801.81
0.0076,0.9924	-2785.19
0.0107,0.9893	-2788.95
0.0061,0.9939	-2776.03
0.0151,0.9849	-2810.12
0.0158,0.9842	-2797.67
0.0113,0.9887	-2775.48
0.0072,0.9928	-2790.31
0.0117,0.9883	-2793.31
0.0065,0.9935	-2770.76
0.0130,0.9870	-2806.23
0.0187,0.9813	-2794.31
0.0112,0.9888	-2788.91
0.0066,0.9934	-2780.76
0.0145,0.9855	-2780.69
0.0067,0.9933	-2775.72
0.0116,0.9884	-2793.33
0.0222,0.9778	-2807.05
0.0088,0.9912	-2794.16
0.0053,0.9947	-2776.52
0.0162,0.9838	-2789.50
0.0080,0.9920	-2785.02
0.0102,0.9898	-2784.46
0.0203,0.9797	-2783.24
0.0085,0.9915	-2803.81
0.0063,0.9937	-2775.92
0.0166,0.9834	-2797.79
0.0080,0.9920	-2789.80
0.0093,0.9907	-2784.60
0.0210,0.9790	-2814.38
0.0080,0.9920	-2789.80
0.0075,0.9925	-2775.47
0.0143,0.9857	-2784.85
0.0094,0.9906	-2798.56
0.0091,0.9909	-2775.26
0.0194,0.9806	-2825.93
0.0110,0.9890	-2793.42
0.0087,0.9913	-2784.74
0.0179,0.9821	-2802.07
0.0112,0.9888	-2797.86
0.0088,0.9912	-2775.27
0.0173,0.9827	-2785.79
0.0134,0.9866	-2793.25
0.0075,0.9925	-2780.33
0.0189,0.9811	-2802.27
0.0153,0.9847	-2789.28
0.0067,0.9933	-2785.70
0.0154,0.9846	-2801.78
0.0146,0.9854	-2801.77
0.0092,0.9908	-2779.94
0.0181,0.9819	-2822.07
0.0156,0.9844	-2797.65
0.0070,0.9930	-2780.56
0.0197,0.9803	-2806.39
0.0110,0.9890	-2788.92
0.0110,0.9890	-2779.93
0.0178,0.9822	-2806.06
0.0158,0.9842	-2797.67
0.0052,0.9948	-2781.87
0.0154,0.9846	-2810.09
0.0109,0.9891	-2775.40
0.0105,0.9895	-2784.44
0.0175,0.9825	-2797.97
0.0172,0.9828	-2789.82
0.0043,0.9957	-2782.92
0.0144,0.9856	-2789.09
0.0120,0.9880	-2793.28
0.0116,0.9884	-2806.65
0.0139,0.9861	-2784.75
0.0154,0.9846	-2785.14
0.0055,0.9945	-2812.86
0.0164,0.9836	-2793.65
0.0123,0.9877	-2780.11
0.0108,0.9892	-2784.43
0.0155,0.9845	-2781.04
0.0107,0.9893	-2793.49
0.0068,0.9932	-2780.64
0.0157,0.9843	-2789.38
0.0101,0.9899	-2793.66
0.0121,0.9879	-2802.08
0.0148,0.9852	-2776.60
0.0103,0.9897	-2784.46
0.0067,0.9933	-2785.68
0.0185,0.9815	-2798.23
0.0100,0.9900	-2789.09
0.0121,0.9879	-2797.68
0.0131,0.9869	-2801.89
0.0109,0.9891	-2779.92
0.0073,0.9927	-2785.32
0.0208,0.9792	-2810.48
0.0098,0.9902	-2784.51
0.0106,0.9894	-2802.58
0.0110,0.9890	-2784.43
0.0115,0.9885	-2797.79
0.0087,0.9913	-2775.28
0.0208,0.9792	-2814.34
0.0096,0.9904	-2775.27
0.0095,0.9905	-2793.84
0.0095,0.9905	-2793.87
0.0118,0.9882	-2806.60
0.0086,0.9914	-2794.28
0.0217,0.9783	-2810.70
0.0115,0.9885	-2788.89
0.0106,0.9894	-2779.90
0.0100,0.9900	-2793.68
0.0112,0.9888	-2793.40
0.0081,0.9919	-2789.75
0.0190,0.9810	-2786.54
0.0131,0.9869	-2797.57
0.0089,0.9911	-2784.68
0.0131,0.9869	-2784.60
0.0093,0.9907	-2789.27
0.0077,0.9923	-2789.97
0.0220,0.9780	-2795.58
0.0125,0.9875	-2793.25
0.0078,0.9922	-2775.38
0.0118,0.9882	-2788.88
0.0082,0.9918	-2799.28
0.0078,0.9922	-2780.23
0.0181,0.9819	-2798.12
0.0124,0.9876	-2793.26
0.0087,0.9913	-2784.76
0.0157,0.9843	-2789.38
0.0087,0.9913	-2775.28
0.0075,0.9925	-2785.21
0.0195,0.9805	-2790.67
0.0146,0.9854	-2784.93
0.0088,0.9912	-2789.45
0.0155,0.9845	-2797.64
0.0088,0.9912	-2803.62
0.0095,0.9905	-2789.21
0.0179,0.9821	-2802.06
0.0131,0.9869	-2788.92
0.0105,0.9895	-2784.44
0.0155,0.9845	-2801.79
0.0098,0.9902	-2789.14
0.0119,0.9881	-2771.20
0.0219,0.9781	-2803.15
0.0114,0.9886	-2784.43
0.0126,0.9874	-2801.98
0.0187,0.9813	-2794.32
0.0097,0.9903	-2789.14
0.0140,0.9860	-2797.54
0.0227,0.9773	-2818.48
0.0116,0.9884	-2797.77
0.0123,0.9877	-2788.88
0.0206,0.9794	-2795.02
0.0087,0.9913	-2775.27
0.0158,0.9842	-2785.28
0.0235,0.9765	-2814.93
0.0125,0.9875	-2784.51
0.0138,0.9862	-2789.01
0.0188,0.9812	-2810.17
0.0096,0.9904	-2789.17
0.0141,0.9859	-2780.55
0.0154,0.9846	-2826.72
0.0115,0.9885	-2797.79
0.0130,0.9870	-2780.26
0.0189,0.9811	-2802.27
0.0115,0.9885	-2784.43
0.0150,0.9850	-2785.04
0.0152,0.9848	-2789.25
0.0095,0.9905	-2793.85
0.0118,0.9882	-2784.45
0.0184,0.9816	-2806.14
0.0139,0.9861	-2818.86
0.0144,0.9856	-2789.09
0.0125,0.9875	-2784.51
0.0103,0.9897	-2798.15
0.0097,0.9903	-2779.90
0.0166,0.9834	-2789.64
0.0151,0.9849	-2789.24
0.0165,0.9835	-2797.78
0.0174,0.9826	-2814.08
0.0111,0.9889	-2788.92
0.0098,0.9902	-2793.76
0.0134,0.9866	-2793.25
0.0134,0.9866	-2793.25
0.0134,0.9866	-2801.85
0.0141,0.9859	-2823.03
0.0109,0.9891	-2779.92
0.0105,0.9895	-2779.90
0.0125,0.9875	-2780.14
0.0125,0.9875	-2841.34
0.0109,0.9891	-2779.92
0.0105,0.9895	-2788.99
0.0089,0.9911	-2775.27
0.0141,0.9859	-2810.29
0.0130,0.9870	-2793.25
0.0108,0.9892	-2793.47
0.0111,0.9889	-2802.40
0.0107,0.9893	-2779.91
0.0096,0.9904	-2793.80
0.0175,0.9825	-2789.93
0.0138,0.9862	-2793.28
0.0123,0.9877	-2788.88
0.0106,0.9894	-2788.97
0.0105,0.9895	-2788.99
0.0128,0.9872	-2788.90
0.0162,0.9838	-2797.73
0.0137,0.9863	-2814.64
0.0127,0.9873	-2793.25
0.0094,0.9906	-2784.57
0.0123,0.9877	-2793.27
0.0122,0.9878	-2788.88
0.0141,0.9859	-2793.29
0.0145,0.9855	-2805.99
0.0151,0.9849	-2789.24
0.0113,0.9887	-2775.49
0.0094,0.9906	-2789.22
0.0125,0.9875	-2797.62
0.0124,0.9876	-2793.26
0.0129,0.9871	-2784.58
0.0135,0.9865	-2810.42
0.0124,0.9876	-2784.51
0.0092,0.9908	-2775.26
0.0109,0.9891	-2779.92
0.0120,0.9880	-2780.05
0.0131,0.9869	-2784.59
0.0139,0.9861	-2814.58
0.0156,0.9844	-2801.79
0.0084,0.9916	-2780.06
0.0138,0.9862	-2793.27
0.0108,0.9892	-2797.97
0.0142,0.9858	-2806.03
0.0141,0.9859	-2789.05
0.0163,0.9837	-2785.43
0.0074,0.9926	-2775.48
0.0165,0.9835	-2793.69
0.0092,0.9908	-2793.98
0.0164,0.9836	-2805.94
0.0173,0.9827	-2810.05
0.0131,0.9869	-2775.97
0.0097,0.9903	-2803.04
0.0151,0.9849	-2801.77
0.0103,0.9897	-2802.70
0.0184,0.9816	-2806.14
0.0133,0.9867	-2793.25
0.0122,0.9878	-2810.84
0.0080,0.9920	-2789.83
0.0169,0.9831	-2822.23
0.0102,0.9898	-2793.61
0.0177,0.9823	-2789.97
0.0168,0.9832	-2785.61
0.0117,0.9883	-2793.32
0.0089,0.9911	-2798.81
0.0200,0.9800	-2814.23
0.0105,0.9895	-2779.90
0.0161,0.9839	-2810.05
0.0157,0.9843	-2776.98
0.0141,0.9859	-2789.05
0.0089,0.9911	-2794.12
0.0211,0.9789	-2818.23
0.0099,0.9901	-2789.10
0.0156,0.9844	-2793.50
0.0164,0.9836	-2789.57
0.0121,0.9879	-2780.06
0.0101,0.9899	-2793.66
0.0214,0.9786	-2795.32
0.0087,0.9913	-2770.54
0.0152,0.9848	-2793.43
0.0160,0.9840	-2789.45
0.0102,0.9898	-2775.31
0.0100,0.9900	-2779.89
0.0225,0.9775	-2814.68
0.0092,0.9908	-2789.30
0.0178,0.9822	-2794.03
0.0198,0.9802	-2790.79
0.0092,0.9908	-2779.94
0.0109,0.9891	-2793.44
0.0223,0.9777	-2807.06
0.0091,0.9909	-2794.00
0.0175,0.9825	-2802.00
0.0265,0.9735	-2833.87
0.0088,0.9912	-2775.27
0.0126,0.9874	-2793.25
0.0164,0.9836	-2801.85
0.0088,0.9912	-2789.43
0.0257,0.9743	-2826.49
0.0302,0.9698	-2824.28
0.0082,0.9918	-2780.11
0.0126,0.9874	-2775.82
0.0157,0.9843	-2810.07
0.0083,0.9917	-2784.88
0.0236,0.9764	-2814.95
0.0327,0.9673	-2835.44
0.0087,0.9913	-2798.93
0.0119,0.9881	-2780.04
0.0170,0.9830	-2793.81
0.0064,0.9936	-2780.86
0.0210,0.9790	-2795.16
0.0313,0.9687	-2814.40
0.0089,0.9911	-2789.40
0.0116,0.9884	-2784.44
0.0169,0.9831	-2814.10
0.0072,0.9928	-2770.61
0.0205,0.9795	-2822.03
0.0294,0.9706	-2834.47
0.0099,0.9901	-2793.71
0.0094,0.9906	-2775.26
0.0159,0.9841	-2805.93
0.0075,0.9925	-2785.25
0.0207,0.9793	-2787.34
0.0275,0.9725	-2819.77
0.0098,0.9902	-2798.36
0.0097,0.9903	-2793.79
0.0135,0.9865	-2797.55
0.0086,0.9914	-2770.54
0.0206,0.9794	-2798.88
0.0298,0.9702	-2824.13
0.0095,0.9905	-2784.55
0.0098,0.9902	-2789.13
0.0119,0.9881	-2793.29
0.0070,0.9930	-2775.61
0.0166,0.9834	-2793.72
0.0259,0.9741	-2804.78
0.0106,0.9894	-2793.50
0.0107,0.9893	-2779.91
0.0091,0.9909	-2775.26
0.0061,0.9939	-2781.09
0.0159,0.9841	-2818.31
0.0252,0.9748	-2815.40
0.0102,0.9898	-2789.04
0.0135,0.9865	-2788.97
0.0116,0.9884	-2780.00
0.0057,0.9943	-2776.25
0.0160,0.9840	-2801.82
0.0239,0.9761	-2811.32
0.0106,0.9894	-2788.97
0.0122,0.9878	-2788.88
0.0133,0.9867	-2793.25
0.0058,0.9942	-2791.65
0.0135,0.9865	-2801.84
0.0192,0.9808	-2822.01
0.0105,0.9895	-2798.08
0.0148,0.9852	-2797.57
0.0141,0.9859	-2801.79
0.0069,0.9931	-2775.63
0.0137,0.9863	-2793.27
0.0175,0.9825	-2797.98
0.0101,0.9899	-2784.47
0.0123,0.9877	-2797.65
0.0137,0.9863	-2793.26
0.0077,0.9923	-2775.42
0.0122,0.9878	-2775.69
0.0160,0.9840	-2810.05
0.0127,0.9873	-2788.89
0.0125,0.9875	-2810.74
0.0118,0.9882	-2780.02
0.0108,0.9892	-2788.95
0.0106,0.9894	-2788.97
0.0180,0.9820	-2806.08
0.0128,0.9872	-2801.94
0.0135,0.9865	-2788.96
0.0098,0.9902	-2779.90
0.0108,0.9892	-2793.47
0.0141,0.9859	-2810.29
0.0160,0.9840	-2805.94
0.0160,0.9840	-2781.23
0.0139,0.9861	-2793.28
0.0099,0.9901	-2793.71
0.0117,0.9883	-2793.31
0.0195,0.9805	-2802.42
0.0127,0.9873	-2784.54
0.0181,0.9819	-2790.11
0.0142,0.9858	-2797.55
0.0091,0.9909	-2784.65
0.0143,0.9857	-2784.85
0.0208,0.9792	-2795.09
0.0138,0.9862	-2793.27
0.0185,0.9815	-2790.26
0.0127,0.9873	-2793.25
0.0108,0.9892	-2825.06
0.0163,0.9837	-2793.65
0.0182,0.9818	-2802.13
0.0136,0.9864	-2797.55
0.0185,0.9815	-2798.20
0.0109,0.9891	-2784.43
0.0099,0.9901	-2784.50
0.0158,0.9842	-2789.41
0.0173,0.9827	-2806.00
0.0130,0.9870	-2806.23
0.0180,0.9820	-2782.09
0.0115,0.9885	-2779.98
0.0093,0.9907	-2798.62
0.0149,0.9851	-2797.58
0.0156,0.9844	-2797.65
0.0120,0.9880	-2797.70
0.0172,0.9828	-2806.00
0.0126,0.9874	-2806.33
0.0077,0.9923	-2794.83
0.0128,0.9872	-2801.93
0.0131,0.9869	-2784.61
0.0144,0.9856	-2789.10
0.0150,0.9850	-2793.40
0.0151,0.9849	-2789.25
0.0084,0.9916	-2789.63
0.0129,0.9871	-2780.22
0.0193,0.9807	-2794.52
0.0160,0.9840	-2801.82
0.0139,0.9861	-2784.75
0.0121,0.9879	-2793.28
0.0078,0.9922	-2785.08
0.0159,0.9841	-2810.06
0.0168,0.9832	-2789.67
0.0144,0.9856	-2814.45
0.0128,0.9872	-2775.86
0.0132,0.9868	-2801.88
0.0086,0.9914	-2784.78
0.0131,0.9869	-2793.25
0.0163,0.9837	-2793.64
0.0136,0.9864	-2788.98
0.0112,0.9888	-2797.88
0.0129,0.9871	-2784.56
0.0090,0.9910	-2789.35
0.0202,0.9798	-2810.38
0.0155,0.9845	-2785.19
0.0109,0.9891	-2802.44
0.0087,0.9913	-2775.28
0.0172,0.9828	-2785.76
0.0097,0.9903	-2770.65
0.0172,0.9828	-2793.87
0.0122,0.9878	-2797.66
0.0078,0.9922	-2780.22
0.0079,0.9921	-2775.37
0.0191,0.9809	-2806.25
0.0094,0.9906	-2779.92
0.0175,0.9825	-2797.97
0.0130,0.9870	-2788.91
0.0084,0.9916	-2789.63
0.0062,0.9938	-2775.93
0.0176,0.9824	-2793.96
0.0103,0.9897	-2789.02
0.0224,0.9776	-2807.09
0.0132,0.9868	-2797.56
0.0084,0.9916	-2780.08
0.0058,0.9942	-2786.43
0.0159,0.9841	-2793.56
0.0090,0.9910	-2775.26
0.0232,0.9768	-2796.16
0.0121,0.9879	-2802.08
0.0075,0.9925	-2775.46
0.0060,0.9940	-2781.18
0.0163,0.9837	-2805.94
0.0103,0.9897	-2789.02
0.0227,0.9773	-2807.18
0.0102,0.9898	-2784.47
0.0077,0.9923	-2799.67
0.0065,0.9935	-2790.88
0.0211,0.9789	-2791.36
0.0108,0.9892	-2775.39
0.0252,0.9748	-2808.12
0.0098,0.9902	-2793.73
0.0094,0.9906	-2775.26
0.0066,0.9934	-2780.75
0.0222,0.9778	-2807.04
0.0137,0.9863	-2784.72
0.0256,0.9744	-2804.63
0.0122,0.9878	-2788.88
0.0121,0.9879	-2784.47
0.0073,0.9927	-2780.44
0.0205,0.9795	-2783.35
0.0140,0.9860	-2784.78
0.0194,0.9806	-2798.46
0.0109,0.9891	-2793.43
0.0156,0.9844	-2793.49
0.0083,0.9917	-2789.65
0.0198,0.9802	-2806.40
0.0145,0.9855	-2789.13
0.0188,0.9812	-2802.24
0.0125,0.9875	-2793.26
0.0130,0.9870	-2784.58
0.0093,0.9907	-2775.26
0.0185,0.9815	-2810.13
0.0142,0.9858	-2793.31
0.0169,0.9831	-2797.84
0.0128,0.9872	-2806.29
0.0134,0.9866	-2793.25
0.0111,0.9889	-2784.42
0.0167,0.9833	-2805.96
0.0146,0.9854	-2793.35
0.0163,0.9837	-2793.64
0.0141,0.9859	-2797.54
0.0125,0.9875	-2793.25
0.0122,0.9878	-2784.48
0.0170,0.9830	-2789.76
0.0160,0.9840	-2785.35
0.0187,0.9813	-2802.24
0.0141,0.9859	-2789.04
0.0116,0.9884	-2793.33
0.0135,0.9865	-2780.39
0.0131,0.9869	-2801.89
0.0135,0.9865	-2819.01
0.0158,0.9842	-2801.80
0.0159,0.9841	-2793.56
0.0108,0.9892	-2802.50
0.0109,0.9891	-2770.90
0.0150,0.9850	-2805.95
0.0146,0.9854	-2780.71
0.0216,0.9784	-2806.85
0.0133,0.9867	-2797.56
0.0097,0.9903	-2770.65
0.0129,0.9871	-2788.91
0.0135,0.9865	-2776.10
0.0149,0.9851	-2789.19
0.0222,0.9778	-2807.02
0.0109,0.9891	-2788.93
0.0113,0.9887	-2775.49
0.0157,0.9843	-2810.07
0.0144,0.9856	-2793.33
0.0125,0.9875	-2780.15
0.0163,0.9837	-2818.25
0.0101,0.9899	-2784.47
0.0095,0.9905	-2784.56
0.0111,0.9889	-2788.91
0.0178,0.9822	-2790.01
0.0151,0.9849	-2793.42
0.0169,0.9831	-2793.78
0.0105,0.9895	-2784.44
0.0086,0.9914	-2784.77
0.0114,0.9886	-2784.43
0.0212,0.9788	-2810.58
0.0174,0.9826	-2801.99
0.0170,0.9830	-2793.81
0.0103,0.9897	-2779.89
0.0105,0.9895	-2775.35
0.0092,0.9908	-2789.30
0.0187,0.9813	-2814.11
0.0125,0.9875	-2802.00
0.0148,0.9852	-2801.77
0.0111,0.9889	-2784.42
0.0118,0.9882	-2784.45
0.0096,0.9904	-2775.27
0.0167,0.9833	-2785.60
0.0113,0.9887	-2788.90
0.0115,0.9885	-2793.34
0.0090,0.9910	-2789.37
0.0109,0.9891	-2784.43
0.0093,0.9907	-2779.93
0.0160,0.9840	-2789.46
0.0130,0.9870	-2788.92
0.0124,0.9876	-2802.01
0.0100,0.9900	-2775.29
0.0100,0.9900	-2779.89
0.0092,0.9908	-2784.61
0.0136,0.9864	-2793.26
0.0186,0.9814	-2790.33
0.0141,0.9859	-2801.79
0.0091,0.9909	-2779.95
0.0102,0.9898	-2784.46
0.0099,0.9901	-2779.89
0.0119,0.9881	-2780.03
0.0158,0.9842	-2797.67
0.0189,0.9811	-2818.07
0.0117,0.9883	-2788.88
0.0117,0.9883	-2784.44
0.0109,0.9891	-2784.43
0.0127,0.9873	-2788.90
0.0157,0.9843	-2793.52
0.0189,0.9811	-2802.28
0.0112,0.9888	-2788.91
0.0104,0.9896	-2784.45
0.0126,0.9874	-2806.32
0.0138,0.9862	-2793.27
0.0130,0.9870	-2793.25
0.0178,0.9822	-2794.02
0.0094,0.9906	-2789.23
0.0116,0.9884	-2797.77
0.0096,0.9904	-2784.54
0.0138,0.9862	-2797.54
0.0114,0.9886	-2788.89
0.0172,0.9828	-2781.72
0.0090,0.9910	-2794.08
0.0100,0.9900	-2779.89
0.0078,0.9922	-2785.10
0.0168,0.9832	-2814.11
0.0115,0.9885	-2779.98
0.0139,0.9861	-2784.76
0.0115,0.9885	-2788.89
0.0109,0.9891	-2775.41
0.0074,0.9926	-2790.15
0.0182,0.9818	-2802.12
0.0110,0.9890	-2788.92
0.0156,0.9844	-2793.50
0.0127,0.9873	-2801.96
0.0097,0.9903	-2770.65
0.0096,0.9904	-2807.71
0.0182,0.9818	-2794.16
0.0117,0.9883	-2797.76
0.0154,0.9846	-2801.78
0.0163,0.9837	-2785.44
0.0097,0.9903	-2779.90
0.0120,0.9880	-2793.29
0.0182,0.9818	-2818.08
0.0125,0.9875	-2793.25
0.0132,0.9868	-2810.51
0.0152,0.9848	-2801.78
0.0101,0.9899	-2779.89
0.0133,0.9867	-2788.94
0.0170,0.9830	-2801.92
0.0136,0.9864	-2797.55
0.0114,0.9886	-2788.89
0.0133,0.9867	-2806.17
0.0126,0.9874	-2780.16
0.0133,0.9867	-2793.25
0.0169,0.9831	-2797.84
0.0127,0.9873	-2801.95
0.0162,0.9838	-2789.53
0.0116,0.9884	-2788.88
0.0105,0.9895	-2802.64
0.0131,0.9869	-2788.92
0.0170,0.9830	-2801.93
0.0129,0.9871	-2801.91
0.0135,0.9865	-2784.68
0.0083,0.9917	-2770.53
0.0116,0.9884	-2788.88
0.0109,0.9891	-2779.92
0.0177,0.9823	-2810.06
0.0116,0.9884	-2793.33
0.0147,0.9853	-2789.16
0.0079,0.9921	-2775.37
0.0116,0.9884	-2780.00
0.0108,0.9892	-2797.97
0.0176,0.9824	-2789.94
0.0130,0.9870	-2771.62
0.0140,0.9860	-2776.27
0.0076,0.9924	-2804.62
0.0098,0.9902	-2779.89
0.0138,0.9862	-2784.73
0.0140,0.9860	-2776.27
0.0126,0.9874	-2793.25
0.0144,0.9856	-2780.66
0.0059,0.9941	-2776.12
0.0085,0.9915	-2794.31
0.0181,0.9819	-2794.13
0.0114,0.9886	-2802.28
0.0131,0.9869	-2801.89
0.0141,0.9859	-2793.29
0.0058,0.9942	-2801.97
0.0068,0.9932	-2780.64
0.0173,0.9827	-2793.89
0.0099,0.9901	-2789.11
0.0143,0.9857	-2793.31
0.0153,0.9847	-2793.45
0.0061,0.9939	-2791.28
0.0094,0.9906	-2793.90
0.0159,0.9841	-2797.68
0.0092,0.9908	-2779.94
0.0099,0.9901	-2789.11
0.0134,0.9866	-2814.74
0.0060,0.9940	-2776.06
0.0106,0.9894	-2775.36
0.0177,0.9823	-2789.99
0.0103,0.9897	-2802.71
0.0099,0.9901	-2789.11
0.0120,0.9880	-2788.87
0.0062,0.9938	-2786.11
0.0109,0.9891	-2788.93
0.0195,0.9805	-2782.84
0.0110,0.9890	-2784.43
0.0112,0.9888	-2788.91
0.0125,0.9875	-2784.51
0.0065,0.9935	-2785.86
0.0104,0.9896	-2789.00
0.0177,0.9823	-2790.00
0.0112,0.9888	-2779.94
0.0103,0.9897	-2798.15
0.0132,0.9868	-2784.62
0.0071,0.9929	-2780.51
0.0090,0.9910	-2784.66
0.0216,0.9784	-2810.67
0.0123,0.9877	-2810.80
0.0117,0.9883	-2788.88
0.0106,0.9894	-2811.67
0.0094,0.9906	-2784.58
0.0101,0.9899	-2798.22
0.0215,0.9785	-2814.47
0.0100,0.9900	-2793.67
0.0120,0.9880	-2780.05
0.0096,0.9904	-2779.91
0.0135,0.9865	-2776.10
0.0095,0.9905	-2807.82
0.0272,0.9728	-2808.93
0.0093,0.9907	-2779.93
0.0126,0.9874	-2784.53
0.0120,0.9880	-2802.12
0.0155,0.9845	-2793.48
0.0088,0.9912	-2780.00
0.0254,0.9746	-2808.20
0.0094,0.9906	-2775.26
0.0136,0.9864	-2801.83
0.0114,0.9886	-2784.43
0.0138,0.9862	-2789.00
0.0083,0.9917	-2789.67
0.0304,0.9696	-2810.48
0.0100,0.9900	-2784.49
0.0154,0.9846	-2793.47
0.0118,0.9882	-2788.88
0.0174,0.9826	-2797.95
0.0116,0.9884	-2788.88
0.0288,0.9712	-2837.85
0.0095,0.9905	-2770.62
0.0139,0.9861	-2797.54
0.0110,0.9890	-2802.42
0.0184,0.9816	-2802.16
0.0098,0.9902	-2789.13
0.0254,0.9746	-2811.84
0.0103,0.9897	-2775.33
0.0144,0.9856	-2784.86
0.0140,0.9860	-2789.04
0.0183,0.9817	-2818.08
0.0104,0.9896	-2775.34
0.0264,0.9736	-2794.20
0.0082,0.9918	-2775.32
0.0137,0.9863	-2797.54
0.0121,0.9879	-2784.48
0.0125,0.9875	-2784.52
0.0107,0.9893	-2775.38
0.0243,0.9757	-2829.91
0.0093,0.9907	-2784.61
0.0121,0.9879	-2793.27
0.0091,0.9909	-2775.26
0.0118,0.9882	-2793.31
0.0135,0.9865	-2793.26
0.0188,0.9812	-2790.38
0.0103,0.9897	-2802.71
0.0100,0.9900	-2779.89
0.0105,0.9895	-2793.55
0.0103,0.9897	-2789.03
0.0107,0.9893	-2798.01
0.0190,0.9810	-2822.02
0.0107,0.9893	-2779.90
0.0109,0.9891	-2802.46
0.0131,0.9869	-2784.60
0.0112,0.9888	-2793.39
0.0104,0.9896	-2779.89
0.0204,0.9796	-2798.81
0.0117,0.9883	-2797.75
0.0129,0.9871	-2775.89
0.0153,0.9847	-2801.78
0.0124,0.9876	-2788.88
0.0118,0.9882	-2775.60
0.0202,0.9798	-2798.73
0.0152,0.9848	-2793.43
0.0116,0.9884	-2775.54
0.0182,0.9818	-2782.18
0.0107,0.9893	-2784.43
0.0141,0.9859	-2793.30
0.0189,0.9811	-2798.34
0.0166,0.9834	-2801.87
0.0132,0.9868	-2801.87
0.0213,0.9787	-2814.43
0.0111,0.9889	-2797.89
0.0193,0.9807	-2790.60
0.0171,0.9829	-2797.89
0.0164,0.9836	-2789.57
0.0147,0.9853	-2797.57
0.0224,0.9776	-2807.10
0.0115,0.9885	-2811.16
0.0206,0.9794	-2810.45
0.0149,0.9851	-2797.58
0.0194,0.9806	-2810.24
0.0165,0.9835	-2785.50
0.0222,0.9778	-2803.24
0.0125,0.9875	-2780.14
0.0215,0.9785	-2806.83
0.0182,0.9818	-2806.12
0.0225,0.9775	-2814.66
0.0155,0.9845	-2810.09
0.0215,0.9785	-2810.66
0.0091,0.9909	-2784.63
0.0183,0.9817	-2818.07
0.0157,0.9843	-2801.80
0.0211,0.9789	-2806.72
0.0164,0.9836	-2801.85
0.0147,0.9853	-2784.96
0.0078,0.9922	-2780.23
0.0182,0.9818	-2794.15
0.0139,0.9861	-2780.49
0.0189,0.9811	-2782.55
0.0174,0.9826	-2801.98
0.0113,0.9887	-2775.49
0.0073,0.9927	-2785.36
0.0145,0.9855	-2818.64
0.0108,0.9892	-2788.94
0.0198,0.9802	-2806.40
0.0188,0.9812	-2814.12
0.0127,0.9873	-2793.25
0.0079,0.9921	-2794.74
0.0145,0.9855	-2797.56
0.0123,0.9877	-2780.11
0.0214,0.9786	-2814.44
0.0168,0.9832	-2805.97
0.0135,0.9865	-2780.37
0.0074,0.9926	-2780.40
0.0140,0.9860	-2784.78
0.0123,0.9877	-2793.26
0.0220,0.9780	-2806.99
0.0139,0.9861	-2789.01
0.0114,0.9886	-2788.89
0.0105,0.9895	-2788.99
0.0120,0.9880	-2806.52
0.0111,0.9889	-2793.40
0.0250,0.9750	-2815.36
0.0142,0.9858	-2797.55
0.0161,0.9839	-2797.71
0.0137,0.9863	-2797.54
0.0120,0.9880	-2793.28
0.0113,0.9887	-2806.79
0.0310,0.9690	-2810.82
0.0157,0.9843	-2793.52
0.0164,0.9836	-2789.56
0.0141,0.9859	-2793.30
0.0123,0.9877	-2793.26
0.0138,0.9862	-2789.00
0.0296,0.9704	-2817.07
0.0106,0.9894	-2788.98
0.0177,0.9823	-2798.01
0.0107,0.9893	-2802.56
0.0117,0.9883	-2784.45
0.0117,0.9883	-2797.75
0.0250,0.9750	-2804.38
0.0099,0.9901	-2770.68
0.0178,0.9822	-2798.04
0.0093,0.9907	-2789.28
0.0134,0.9866	-2780.37
0.0139,0.9861	-2789.02
0.0235,0.9765	-2822.37
0.0101,0.9899	-2779.89
0.0183,0.9817	-2790.18
0.0101,0.9899	-2807.43
0.0140,0.9860	-2806.05
0.0169,0.9831	-2793.79
0.0203,0.9797	-2822.02
0.0090,0.9910	-2789.37
0.0169,0.9831	-2801.91
0.0095,0.9905	-2798.52
0.0120,0.9880	-2797.69
0.0176,0.9824	-2802.01
0.0214,0.9786	-2802.97
0.0064,0.9936	-2775.87
0.0167,0.9833	-2797.81
0.0101,0.9899	-2793.64
0.0129,0.9871	-2793.25
0.0207,0.9793	-2822.04
0.0219,0.9781	-2795.53
0.0090,0.9910	-2784.67
0.0156,0.9844	-2822.50
0.0112,0.9888	-2779.95
0.0144,0.9856	-2789.10
0.0236,0.9764	-2822.40
0.0202,0.9798	-2806.50
0.0102,0.9898	-2775.32
0.0148,0.9852	-2793.37
0.0129,0.9871	-2806.26
0.0155,0.9845	-2810.09
0.0270,0.9730	-2816.04
0.0205,0.9795	-2810.44
0.0112,0.9888	-2784.43
0.0124,0.9876	-2793.26
0.0144,0.9856	-2793.33
0.0194,0.9806	-2786.70
0.0247,0.9753	-2807.90
0.0201,0.9799	-2794.82
0.0146,0.9854	-2793.35
0.0118,0.9882	-2788.88
0.0199,0.9801	-2790.85
0.0173,0.9827	-2797.92
0.0217,0.9783	-2791.64
0.0165,0.9835	-2805.95
0.0133,0.9867	-2793.25
0.0121,0.9879	-2797.68
0.0157,0.9843	-2793.52
0.0179,0.9821	-2782.05
0.0218,0.9782	-2787.92
0.0187,0.9813	-2794.31
0.0150,0.9850	-2797.59
0.0118,0.9882	-2797.73
0.0153,0.9847	-2780.94
0.0162,0.9838	-2801.83
0.0213,0.9787	-2795.30
0.0155,0.9845	-2785.18
0.0142,0.9858	-2776.33
0.0098,0.9902	-2789.12
0.0136,0.9864	-2784.69
0.0143,0.9857	-2797.55
0.0179,0.9821	-2794.05
0.0141,0.9859	-2793.29
0.0111,0.9889	-2788.91
0.0098,0.9902	-2793.75
0.0119,0.9881	-2780.04
0.0112,0.9888	-2784.43
0.0144,0.9856	-2784.87
0.0151,0.9849	-2810.13
0.0091,0.9909	-2794.03
0.0086,0.9914	-2780.03
0.0123,0.9877	-2797.64
0.0103,0.9897	-2793.59
0.0140,0.9860	-2810.30
0.0124,0.9876	-2788.88
0.0099,0.9901	-2779.89
0.0077,0.9923	-2780.27
0.0107,0.9893	-2784.43
0.0107,0.9893	-2779.90
0.0125,0.9875	-2801.99
0.0133,0.9867	-2806.16
0.0082,0.9918	-2784.90
0.0090,0.9910	-2794.06
0.0104,0.9896	-2784.45
0.0136,0.9864	-2818.95
0.0120,0.9880	-2775.64
0.0156,0.9844	-2789.35
0.0098,0.9902	-2784.50
0.0081,0.9919	-2780.14
0.0127,0.9873	-2793.25
0.0189,0.9811	-2825.97
0.0125,0.9875	-2784.52
0.0132,0.9868	-2810.51
0.0144,0.9856	-2789.10
0.0110,0.9890	-2779.93
0.0142,0.9858	-2793.30
0.0192,0.9808	-2806.27
0.0108,0.9892	-2788.95
0.0117,0.9883	-2788.88
0.0159,0.9841	-2793.55
0.0127,0.9873	-2797.60
0.0145,0.9855	-2780.69
0.0164,0.9836	-2785.47
0.0125,0.9875	-2784.51
0.0108,0.9892	-2793.47
0.0142,0.9858	-2793.30
0.0127,0.9873	-2797.61
0.0137,0.9863	-2788.98
0.0134,0.9866	-2784.66
0.0107,0.9893	-2775.37
0.0113,0.9887	-2784.43
0.0153,0.9847	-2785.12
0.0128,0.9872	-2788.90
0.0163,0.9837	-2801.84
0.0138,0.9862	-2806.08
0.0110,0.9890	-2779.93
0.0133,0.9867	-2801.86
0.0159,0.9841	-2814.19
0.0131,0.9869	-2788.92
0.0140,0.9860	-2793.29
0.0152,0.9848	-2789.27
0.0115,0.9885	-2797.80
0.0107,0.9893	-2784.43
0.0165,0.9835	-2797.77
0.0131,0.9869	-2793.25
0.0134,0.9866	-2806.16
0.0161,0.9839	-2785.37
0.0138,0.9862	-2789.00
0.0100,0.9900	-2793.68
0.0169,0.9831	-2797.84
0.0145,0.9855	-2784.91
0.0115,0.9885	-2788.89
0.0141,0.9859	-2797.54
0.0133,0.9867	-2780.32
0.0095,0.9905	-2793.84
0.0180,0.9820	-2790.10
0.0118,0.9882	-2784.45
0.0130,0.9870	-2793.25
0.0149,0.9851	-2797.58
0.0136,0.9864	-2797.55
0.0109,0.9891	-2793.44
0.0160,0.9840	-2789.46
0.0131,0.9869	-2788.92
0.0120,0.9880	-2780.06
0.0151,0.9849	-2801.77
0.0141,0.9859	-2789.05
0.0105,0.9895	-2793.54
0.0163,0.9837	-2781.36
0.0131,0.9869	-2788.92
0.0126,0.9874	-2793.25
0.0156,0.9844	-2797.65
0.0127,0.9873	-2801.96
0.0130,0.9870	-2780.25
0.0139,0.9861	-2801.80
0.0119,0.9881	-2793.30
0.0127,0.9873	-2793.25
0.0165,0.9835	-2801.86
0.0134,0.9866	-2784.66
0.0154,0.9846	-2810.10
0.0142,0.9858	-2814.51
0.0142,0.9858	-2793.31
0.0130,0.9870	-2793.25
0.0160,0.9840	-2793.59
0.0098,0.9902	-2775.28
0.0195,0.9805	-2806.33
0.0119,0.9881	-2784.46
0.0104,0.9896	-2775.34
0.0143,0.9857	-2797.55
0.0149,0.9851	-2805.96
0.0101,0.9899	-2793.63
0.0150,0.9850	-2801.77
0.0096,0.9904	-2775.27
0.0110,0.9890	-2779.92
0.0131,0.9869	-2780.28
0.0156,0.9844	-2793.49
0.0083,0.9917	-2784.89
0.0153,0.9847	-2797.61
0.0097,0.9903	-2775.27
0.0123,0.9877	-2784.49
0.0111,0.9889	-2788.91
0.0142,0.9858	-2810.27
0.0067,0.9933	-2780.69
0.0135,0.9865	-2793.26
0.0101,0.9899	-2784.47
0.0135,0.9865	-2793.26
0.0095,0.9905	-2779.91
0.0168,0.9832	-2797.82
0.0089,0.9911	-2784.69
0.0128,0.9872	-2797.59
0.0089,0.9911	-2775.27
0.0122,0.9878	-2775.68
0.0113,0.9887	-2788.90
0.0149,0.9851	-2793.39
0.0084,0.9916	-2789.60
0.0123,0.9877	-2815.19
0.0091,0.9909	-2794.04
0.0117,0.9883	-2797.76
0.0095,0.9905	-2793.86
0.0131,0.9869	-2801.89
0.0073,0.9927	-2790.24
0.0125,0.9875	-2793.25
0.0077,0.9923	-2785.11
0.0119,0.9881	-2802.12
0.0110,0.9890	-2793.42
0.0156,0.9844	-2797.65
0.0062,0.9938	-2775.97
0.0101,0.9899	-2784.47
0.0082,0.9918	-2770.53
0.0114,0.9886	-2775.51
0.0122,0.9878	-2775.71
0.0203,0.9797	-2818.14
0.0069,0.9931	-2785.61
0.0133,0.9867	-2788.95
0.0078,0.9922	-2789.90
0.0122,0.9878	-2788.88
0.0123,0.9877	-2793.26
0.0211,0.9789	-2810.56
0.0083,0.9917	-2784.88
0.0159,0.9841	-2789.44
0.0084,0.9916	-2780.07
0.0118,0.9882	-2784.45
0.0114,0.9886	-2811.23
0.0229,0.9771	-2803.50
0.0082,0.9918	-2780.11
0.0192,0.9808	-2798.41
0.0101,0.9899	-2789.05
0.0121,0.9879	-2775.66
0.0104,0.9896	-2807.25
0.0189,0.9811	-2806.22
0.0084,0.9916	-2789.60
0.0188,0.9812	-2814.11
0.0127,0.9873	-2801.95
0.0111,0.9889	-2793.41
0.0096,0.9904	-2779.91
0.0169,0.9831	-2789.72
0.0081,0.9919	-2784.97
0.0175,0.9825	-2793.93
0.0123,0.9877	-2780.10
0.0138,0.9862	-2801.81
0.0100,0.9900	-2779.89
0.0199,0.9801	-2790.86
0.0094,0.9906	-2793.91
0.0182,0.9818	-2818.08
0.0149,0.9851	-2822.73
0.0188,0.9812	-2798.29
0.0093,0.9907	-2807.93
0.0221,0.9779	-2807.00
0.0101,0.9899	-2784.48
0.0206,0.9794	-2802.72
0.0154,0.9846	-2789.31
0.0204,0.9796	-2798.79
0.0128,0.9872	-2793.25
0.0213,0.9787	-2810.59
0.0112,0.9888	-2788.90
0.0194,0.9806	-2806.31
0.0165,0.9835	-2801.87
0.0164,0.9836	-2793.67
0.0126,0.9874	-2801.97
0.0242,0.9758	-2807.72
0.0101,0.9899	-2770.71
0.0174,0.9826	-2793.91
0.0162,0.9838	-2789.51
0.0200,0.9800	-2818.12
0.0120,0.9880	-2780.05
0.0250,0.9750	-2833.67
0.0105,0.9895	-2793.53
0.0184,0.9816	-2794.21
0.0218,0.9782	-2806.92
0.0172,0.9828	-2810.04
0.0158,0.9842	-2793.54
0.0179,0.9821	-2814.08
0.0094,0.9906	-2789.24
0.0168,0.9832	-2801.90
0.0214,0.9786	-2829.74
0.0136,0.9864	-2793.26
0.0144,0.9856	-2797.55
0.0160,0.9840	-2801.82
0.0091,0.9909	-2789.33
0.0169,0.9831	-2797.85
0.0209,0.9791	-2818.20
0.0126,0.9874	-2780.17
0.0136,0.9864	-2818.98
0.0178,0.9822	-2794.02
0.0096,0.9904	-2779.90
0.0180,0.9820	-2806.08
0.0237,0.9763	-2800.08
0.0145,0.9855	-2784.90
0.0145,0.9855	-2806.00
0.0176,0.9824	-2789.96
0.0109,0.9891	-2797.96
0.0197,0.9803	-2814.19
0.0245,0.9755	-2822.57
0.0128,0.9872	-2788.90
0.0125,0.9875	-2797.63
0.0248,0.9752	-2807.93
0.0128,0.9872	-2793.25
0.0238,0.9762	-2807.58
0.0274,0.9726	-2830.45
0.0120,0.9880	-2788.87
0.0147,0.9853	-2789.16
0.0256,0.9744	-2822.83
0.0100,0.9900	-2779.89
0.0219,0.9781	-2806.96
0.0235,0.9765	-2822.37
0.0113,0.9887	-2815.70
0.0146,0.9854	-2784.92
0.0232,0.9768	-2799.90
0.0105,0.9895	-2807.17
0.0200,0.9800	-2818.12
0.0246,0.9754	-2796.83
0.0105,0.9895	-2784.44
0.0156,0.9844	-2797.65
0.0233,0.9767	-2814.86
0.0095,0.9905	-2779.91
0.0222,0.9778	-2799.46
0.0249,0.9751	-2804.31
0.0088,0.9912	-2779.99
0.0180,0.9820	-2814.08
0.0214,0.9786	-2787.68
0.0078,0.9922	-2775.40
0.0266,0.9734	-2815.90
0.0223,0.9777	-2810.85
0.0094,0.9906	-2789.23
0.0191,0.9809	-2802.32
0.0220,0.9780	-2803.19
0.0086,0.9914	-2770.54
0.0307,0.9693	-2838.28
0.0219,0.9781	-2810.74
0.0094,0.9906	-2793.91
0.0230,0.9770	-2811.05
0.0185,0.9815	-2814.10
0.0088,0.9912	-2779.99
0.0296,0.9704	-2803.12
0.0169,0.9831	-2801.90
0.0097,0.9903	-2779.90
0.0191,0.9809	-2794.45
0.0186,0.9814	-2810.14
0.0089,0.9911	-2779.98
0.0274,0.9726	-2823.31
0.0157,0.9843	-2789.38
0.0071,0.9929	-2790.38
0.0163,0.9837	-2805.94
0.0160,0.9840	-2793.59
0.0083,0.9917	-2780.10
0.0226,0.9774	-2822.23
0.0153,0.9847	-2810.10
0.0078,0.9922	-2785.10
0.0142,0.9858	-2797.55
0.0182,0.9818	-2794.15
0.0100,0.9900	-2779.89
0.0212,0.9788	-2806.75
0.0168,0.9832	-2797.84
0.0074,0.9926	-2775.49
0.0151,0.9849	-2793.42
0.0170,0.9830	-2814.10
0.0101,0.9899	-2779.89
0.0192,0.9808	-2818.08
0.0183,0.9817	-2818.07
0.0079,0.9921	-2785.03
0.0171,0.9829	-2814.09
0.0190,0.9810	-2814.13
0.0097,0.9903	-2798.41
0.0172,0.9828	-2801.95
0.0165,0.9835	-2801.86
0.0068,0.9932	-2790.61
0.0159,0.9841	-2801.81
0.0181,0.9819	-2802.11
0.0104,0.9896	-2779.89
0.0175,0.9825	-2797.96
0.0164,0.9836	-2805.95
0.0065,0.9935	-2775.82
0.0170,0.9830	-2810.04
0.0174,0.9826	-2801.98
0.0108,0.9892	-2802.49
0.0179,0.9821	-2798.05
0.0159,0.9841	-2781.18
0.0086,0.9914	-2789.51
0.0170,0.9830	-2789.76
0.0185,0.9815	-2810.13
0.0108,0.9892	-2784.43
0.0184,0.9816	-2814.10
0.0140,0.9860	-2797.54
0.0071,0.9929	-2785.45
0.0193,0.9807	-2814.15
0.0190,0.9810	-2806.25
0.0089,0.9911	-2779.99
0.0185,0.9815	-2822.04
0.0113,0.9887	-2793.37
0.0098,0.9902	-2779.90
0.0187,0.9813	-2814.11
0.0171,0.9829	-2785.74
0.0104,0.9896	-2775.34
0.0166,0.9834	-2793.72
0.0116,0.9884	-2780.00
0.0114,0.9886	-2797.81
0.0168,0.9832	-2830.38
0.0159,0.9841	-2789.42
0.0106,0.9894	-2784.43
0.0156,0.9844	-2772.80
0.0126,0.9874	-2801.98
0.0139,0.9861	-2801.80
0.0190,0.9810	-2806.25
0.0153,0.9847	-2801.78
0.0139,0.9861	-2780.50
0.0157,0.9843	-2793.52
0.0134,0.9866	-2806.15
0.0120,0.9880	-2780.06
0.0181,0.9819	-2818.08
0.0113,0.9887	-2802.31
0.0150,0.9850	-2797.58
0.0170,0.9830	-2801.92
0.0164,0.9836	-2789.57
0.0131,0.9869	-2819.17
0.0195,0.9805	-2782.82
0.0100,0.9900	-2775.30
0.0134,0.9866	-2797.55
0.0174,0.9826	-2797.96
0.0132,0.9868	-2793.25
0.0143,0.9857	-2801.78
0.0189,0.9811	-2782.52
0.0107,0.9893	-2779.90
0.0143,0.9857	-2793.31
0.0178,0.9822	-2798.04
0.0139,0.9861	-2780.50
0.0164,0.9836	-2781.36
0.0190,0.9810	-2802.30
0.0099,0.9901	-2779.89
0.0139,0.9861	-2784.75
0.0147,0.9853	-2780.76
0.0152,0.9848	-2810.11
0.0200,0.9800	-2818.12
0.0188,0.9812	-2802.25
0.0127,0.9873	-2801.96
0.0155,0.9845	-2781.02
0.0151,0.9849	-2789.23
0.0155,0.9845	-2789.33
0.0184,0.9816	-2810.12
0.0184,0.9816	-2806.15
0.0129,0.9871	-2780.23
0.0156,0.9844	-2781.06
0.0154,0.9846	-2785.14
0.0160,0.9840	-2785.34
0.0183,0.9817	-2798.16
0.0214,0.9786	-2806.81
0.0104,0.9896	-2798.12
0.0130,0.9870	-2788.91
0.0157,0.9843	-2810.07
0.0162,0.9838	-2793.62
0.0203,0.9797	-2798.75
0.0224,0.9776	-2792.02
0.0098,0.9902	-2784.51
0.0126,0.9874	-2788.89
0.0123,0.9877	-2784.49
0.0143,0.9857	-2784.85
0.0156,0.9844	-2797.65
0.0215,0.9785	-2795.39
0.0122,0.9878	-2793.27
0.0148,0.9852	-2793.37
0.0121,0.9879	-2788.88
0.0133,0.9867	-2788.95
0.0171,0.9829	-2793.84
0.0179,0.9821	-2814.08
0.0126,0.9874	-2793.25
0.0153,0.9847	-2793.44
0.0113,0.9887	-2788.90
0.0108,0.9892	-2788.95
0.0200,0.9800	-2798.65
0.0178,0.9822	-2802.06
0.0138,0.9862	-2806.09
0.0166,0.9834	-2801.87
0.0131,0.9869	-2784.60
0.0119,0.9881	-2780.04
0.0185,0.9815	-2794.24
0.0146,0.9854	-2780.71
0.0136,0.9864	-2810.40
0.0115,0.9885	-2793.34
0.0131,0.9869	-2801.89
0.0123,0.9877	-2780.11
0.0175,0.9825	-2793.95
0.0153,0.9847	-2789.29
0.0148,0.9852	-2797.57
0.0104,0.9896	-2789.01
0.0145,0.9855	-2780.68
0.0119,0.9881	-2775.61
0.0138,0.9862	-2801.81
0.0123,0.9877	-2793.26
0.0131,0.9869	-2788.92
0.0100,0.9900	-2784.48
0.0137,0.9863	-2793.27
0.0119,0.9881	-2784.46
0.0128,0.9872	-2788.90
0.0132,0.9868	-2801.88
0.0149,0.9851	-2776.61
0.0117,0.9883	-2802.20
0.0151,0.9849	-2810.13
0.0118,0.9882	-2780.03
0.0115,0.9885	-2793.35
0.0144,0.9856	-2806.00
0.0130,0.9870	-2793.25
0.0115,0.9885	-2788.89
0.0171,0.9829	-2797.89
0.0103,0.9897	-2784.46
0.0110,0.9890	-2797.91
0.0160,0.9840	-2801.82
0.0077,0.9923	-2790.00
0.0136,0.9864	-2788.98
0.0153,0.9847	-2793.45
0.0100,0.9900	-2779.89
0.0096,0.9904	-2784.55
0.0175,0.9825	-2801.99
0.0070,0.9930	-2775.59
0.0135,0.9865	-2801.84
0.0165,0.9835	-2781.42
0.0108,0.9892	-2793.45
0.0094,0.9906	-2784.58
0.0147,0.9853	-2797.56
0.0072,0.9928	-2775.55
0.0112,0.9888	-2788.91
0.0193,0.9807	-2802.37
0.0104,0.9896	-2798.12
0.0093,0.9907	-2775.26
0.0137,0.9863	-2784.71
0.0072,0.9928	-2785.37
0.0136,0.9864	-2810.41
0.0193,0.9807	-2798.44
0.0110,0.9890	-2784.43
0.0094,0.9906	-2784.57
0.0154,0.9846	-2789.31
0.0066,0.9934	-2780.78
0.0130,0.9870	-2780.26
0.0177,0.9823	-2789.98
0.0101,0.9899	-2793.64
0.0091,0.9909	-2789.33
0.0147,0.9853	-2810.18
0.0074,0.9926	-2785.31
0.0126,0.9874	-2801.97
0.0170,0.9830	-2793.80
0.0099,0.9901	-2775.29
0.0084,0.9916	-2784.85
0.0193,0.9807	-2794.51
0.0087,0.9913	-2780.01
0.0134,0.9866	-2788.95
0.0161,0.9839	-2797.71
0.0122,0.9878	-2784.48
0.0109,0.9891	-2788.94
0.0191,0.9809	-2822.01
0.0090,0.9910	-2794.09
0.0127,0.9873	-2806.31
0.0156,0.9844	-2810.08
0.0120,0.9880	-2784.46
0.0100,0.9900	-2789.08
0.0208,0.9792	-2795.10
0.0086,0.9914	-2784.78
0.0112,0.9888	-2811.33
0.0136,0.9864	-2806.11
0.0153,0.9847	-2797.61
0.0090,0.9910	-2770.56
0.0170,0.9830	-2805.98
0.0085,0.9915	-2794.34
0.0141,0.9859	-2780.56
0.0139,0.9861	-2784.75
0.0174,0.9826	-2818.12
0.0108,0.9892	-2784.43
0.0164,0.9836	-2797.75
0.0091,0.9909	-2775.26
0.0151,0.9849	-2831.02
0.0155,0.9845	-2801.79
0.0172,0.9828	-2805.99
0.0107,0.9893	-2793.47
0.0145,0.9855	-2805.99
0.0079,0.9921	-2794.68
0.0129,0.9871	-2801.92
0.0155,0.9845	-2797.63
0.0171,0.9829	-2814.09
0.0115,0.9885	-2797.79
0.0128,0.9872	-2784.55
0.0082,0.9918	-2780.12
0.0128,0.9872	-2775.85
0.0132,0.9868	-2780.30
0.0174,0.9826	-2793.91
0.0102,0.9898	-2789.05
0.0130,0.9870	-2788.92
0.0085,0.9915	-2775.29
0.0093,0.9907	-2789.25
0.0146,0.9854	-2797.56
0.0160,0.9840	-2789.46
0.0131,0.9869	-2784.60
0.0117,0.9883	-2793.31
0.0095,0.9905	-2779.91
0.0103,0.9897	-2779.89
0.0138,0.9862	-2793.27
0.0147,0.9853	-2793.37
0.0122,0.9878	-2775.68
0.0150,0.9850	-2797.59
0.0113,0.9887	-2788.90
0.0109,0.9891	-2793.44
0.0151,0.9849	-2789.25
0.0143,0.9857	-2797.55
0.0118,0.9882	-2788.88
0.0112,0.9888	-2779.95
0.0103,0.9897	-2789.02
0.0099,0.9901	-2789.10
0.0144,0.9856	-2793.33
0.0122,0.9878	-2788.88
0.0138,0.9862	-2789.00
0.0119,0.9881	-2775.62
0.0114,0.9886	-2788.89
0.0092,0.9908	-2779.94
0.0125,0.9875	-2797.63
0.0126,0.9874	-2788.89
0.0159,0.9841	-2793.56
0.0125,0.9875	-2806.37
0.0114,0.9886	-2784.43
0.0117,0.9883	-2775.56
0.0085,0.9915	-2775.29
0.0117,0.9883	-2784.45
0.0149,0.9851	-2789.20
0.0118,0.9882	-2797.74
0.0123,0.9877	-2784.49
0.0082,0.9918	-2794.51
0.0083,0.9917	-2799.25
0.0110,0.9890	-2784.42
0.0163,0.9837	-2797.74
0.0110,0.9890	-2802.41
0.0103,0.9897	-2784.45
0.0076,0.9924	-2770.56
0.0089,0.9911	-2794.10
0.0094,0.9906	-2793.88
0.0180,0.9820	-2782.08
0.0115,0.9885	-2784.43
0.0117,0.9883	-2797.74
0.0085,0.9915	-2775.30
0.0114,0.9886	-2784.43
0.0100,0.9900	-2793.68
0.0142,0.9858	-2784.82
0.0136,0.9864	-2776.13
0.0147,0.9853	-2797.57
0.0086,0.9914	-2789.51
0.0131,0.9869	-2784.59
0.0088,0.9912	-2794.19
0.0139,0.9861	-2789.02
0.0144,0.9856	-2784.86
0.0119,0.9881	-2775.63
0.0088,0.9912	-2784.72
0.0118,0.9882	-2788.88
0.0072,0.9928	-2785.37
0.0157,0.9843	-2814.21
0.0134,0.9866	-2784.65
0.0144,0.9856	-2793.33
0.0067,0.9933	-2795.73
0.0134,0.9866	-2780.34
0.0099,0.9901	-2779.89
0.0165,0.9835	-2801.87
0.0136,0.9864	-2784.70
0.0152,0.9848	-2797.60
0.0066,0.9934	-2785.75
0.0114,0.9886	-2775.50
0.0109,0.9891	-2784.43
0.0185,0.9815	-2806.16
0.0113,0.9887	-2788.90
0.0145,0.9855	-2789.13
0.0071,0.9929	-2780.50
0.0128,0.9872	-2819.31
0.0128,0.9872	-2797.59
0.0132,0.9868	-2788.94
0.0115,0.9885	-2779.98
0.0159,0.9841	-2789.42
0.0066,0.9934	-2770.75
0.0162,0.9838	-2805.94
0.0163,0.9837	-2789.55
0.0152,0.9848	-2810.12
0.0125,0.9875	-2784.52
0.0128,0.9872	-2797.59
0.0077,0.9923	-2790.01
0.0203,0.9797	-2822.02
0.0199,0.9801	-2810.32
0.0118,0.9882	-2788.88
0.0153,0.9847	-2810.11
0.0127,0.9873	-2806.30
0.0078,0.9922	-2775.40
0.0234,0.9766	-2811.17
0.0179,0.9821	-2790.05
0.0145,0.9855	-2784.91
0.0125,0.9875	-2788.89
0.0128,0.9872	-2793.25
0.0077,0.9923	-2780.26
0.0248,0.9752	-2815.29
0.0184,0.9816	-2798.18
0.0146,0.9854	-2797.56
0.0135,0.9865	-2801.84
0.0117,0.9883	-2788.88
0.0065,0.9935	-2775.79
0.0257,0.9743	-2822.85
0.0136,0.9864	-2793.26
0.0133,0.9867	-2801.87
0.0119,0.9881	-2780.04
0.0098,0.9902	-2803.00
0.0061,0.9939	-2786.16
0.0174,0.9826	-2830.23
0.0109,0.9891	-2793.45
0.0117,0.9883	-2775.56
0.0152,0.9848	-2793.43
0.0084,0.9916	-2789.61
0.0081,0.9919	-2789.78
0.0140,0.9860	-2793.29
0.0137,0.9863	-2797.54
0.0139,0.9861	-2801.81
0.0119,0.9881	-2780.04
0.0074,0.9926	-2780.38
0.0095,0.9905	-2789.20
0.0128,0.9872	-2780.22
0.0097,0.9903	-2798.41
0.0111,0.9889	-2806.89
0.0131,0.9869	-2788.92
0.0095,0.9905	-2798.49
0.0077,0.9923	-2785.13
0.0122,0.9878	-2797.66
0.0093,0.9907	-2793.95
0.0092,0.9908	-2775.26
0.0087,0.9913	-2794.22
0.0101,0.9899	-2793.65
0.0084,0.9916	-2775.30
0.0101,0.9899	-2798.22
0.0078,0.9922	-2785.10
0.0096,0.9904	-2789.18
0.0106,0.9894	-2788.97
0.0091,0.9909	-2784.64
0.0088,0.9912	-2784.73
0.0090,0.9910	-2794.06
0.0094,0.9906	-2775.26
0.0109,0.9891	-2788.94
0.0137,0.9863	-2784.70
0.0087,0.9913	-2775.28
0.0092,0.9908	-2803.30
0.0107,0.9893	-2798.01
0.0112,0.9888	-2797.86
0.0111,0.9889	-2802.38
0.0150,0.9850	-2793.41
0.0106,0.9894	-2788.98
0.0101,0.9899	-2798.21
0.0124,0.9876	-2780.12
0.0113,0.9887	-2779.95
0.0173,0.9827	-2797.94
0.0192,0.9808	-2798.41
0.0087,0.9913	-2780.01
0.0081,0.9919	-2770.53
0.0126,0.9874	-2784.53
0.0090,0.9910	-2784.68
0.0180,0.9820	-2806.08
0.0212,0.9788	-2787.58
0.0074,0.9926	-2780.40
0.0076,0.9924	-2780.29
0.0110,0.9890	-2793.42
0.0116,0.9884	-2793.33
0.0171,0.9829	-2814.09
0.0170,0.9830	-2801.93
0.0086,0.9914	-2784.78
0.0058,0.9942	-2786.50
0.0118,0.9882	-2780.02
0.0115,0.9885	-2793.35
0.0196,0.9804	-2802.46
0.0192,0.9808	-2806.28
0.0094,0.9906	-2784.58
0.0054,0.9946	-2776.47
0.0099,0.9901	-2784.50
0.0145,0.9855	-2797.56
0.0157,0.9843	-2793.53
0.0195,0.9805	-2810.25
0.0103,0.9897	-2779.89
0.0050,0.9950	-2776.84
0.0113,0.9887	-2802.32
0.0131,0.9869	-2806.21
0.0140,0.9860	-2797.54
0.0147,0.9853	-2789.15
0.0129,0.9871	-2801.93
0.0050,0.9950	-2792.75
0.0157,0.9843	-2789.37
0.0115,0.9885	-2820.09
0.0149,0.9851	-2793.38
0.0151,0.9849	-2793.42
0.0118,0.9882	-2802.16
0.0056,0.9944	-2776.31
0.0139,0.9861	-2780.48
0.0110,0.9890	-2784.42
0.0155,0.9845	-2810.08
0.0200,0.9800	-2802.54
0.0100,0.9900	-2784.49
0.0053,0.9947	-2781.76
0.0150,0.9850	-2801.77
0.0103,0.9897	-2775.33
0.0169,0.9831	-2810.04
0.0183,0.9817	-2802.15
0.0124,0.9876	-2788.88
0.0050,0.9950	-2782.06
0.0121,0.9879	-2788.87
0.0088,0.9912	-2784.71
0.0170,0.9830	-2789.76
0.0148,0.9852	-2805.97
0.0157,0.9843	-2805.93
0.0052,0.9948	-2787.17
0.0131,0.9869	-2801.89
0.0082,0.9918	-2780.13
0.0205,0.9795	-2810.43
0.0130,0.9870	-2797.58
0.0148,0.9852	-2789.18
0.0040,0.9960	-2783.51
0.0145,0.9855	-2789.11
0.0080,0.9920	-2813.94
0.0198,0.9802	-2798.59
0.0154,0.9846	-2776.84
0.0159,0.9841	-2797.68
0.0047,0.9953	-2777.10
0.0129,0.9871	-2793.25
0.0100,0.9900	-2789.07
0.0248,0.9752	-2807.93
0.0161,0.9839	-2785.37
0.0210,0.9790	-2806.69
0.0060,0.9940	-2781.20
0.0119,0.9881	-2784.46
0.0109,0.9891	-2779.92
0.0258,0.9742	-2804.73
0.0175,0.9825	-2814.08
0.0218,0.9782	-2810.73
0.0070,0.9930	-2790.50
0.0095,0.9905	-2775.26
0.0106,0.9894	-2779.90
0.0238,0.9762	-2822.43
0.0145,0.9855	-2789.12
0.0236,0.9764	-2814.93
0.0079,0.9921	-2780.21
0.0121,0.9879	-2784.47
0.0124,0.9876	-2784.51
0.0213,0.9787	-2810.60
0.0161,0.9839	-2814.17
0.0250,0.9750	-2797.05
0.0070,0.9930	-2790.44
0.0101,0.9899	-2789.06
0.0097,0.9903	-2779.90
0.0169,0.9831	-2818.16
0.0169,0.9831	-2789.71
0.0249,0.9751	-2804.34
0.0091,0.9909	-2794.04
0.0125,0.9875	-2788.88
0.0117,0.9883	-2793.31
0.0153,0.9847	-2801.78
0.0184,0.9816	-2810.12
0.0232,0.9768	-2799.89
0.0098,0.9902	-2779.90
0.0122,0.9878	-2775.70
0.0145,0.9855	-2789.11
0.0157,0.9843	-2814.21
0.0193,0.9807	-2806.29
0.0223,0.9777	-2814.64
0.0090,0.9910	-2784.67
0.0124,0.9876	-2788.88
0.0129,0.9871	-2780.24
0.0164,0.9836	-2777.31
0.0182,0.9818	-2806.11
0.0233,0.9767	-2822.34
0.0090,0.9910	-2779.97
0.0123,0.9877	-2775.73
0.0112,0.9888	-2784.43
0.0169,0.9831	-2810.04
0.0181,0.9819	-2802.10
0.0246,0.9754	-2796.81
0.0083,0.9917	-2784.89
0.0101,0.9899	-2779.89
0.0093,0.9907	-2798.61
0.0217,0.9783	-2806.88
0.0240,0.9760	-2800.22
0.0242,0.9758	-2792.92
0.0098,0.9902	-2793.76
0.0127,0.9873	-2780.19
0.0110,0.9890	-2770.92
0.0176,0.9824	-2802.02
0.0213,0.9787	-2799.13
0.0251,0.9749	-2833.68
0.0094,0.9906	-2779.92
0.0138,0.9862	-2784.73
0.0097,0.9903	-2789.14
0.0170,0.9830	-2797.86
0.0245,0.9755	-2815.19
0.0229,0.9771	-2829.78
0.0117,0.9883	-2788.88
0.0138,0.9862	-2789.00
0.0092,0.9908	-2770.59
0.0166,0.9834	-2814.12
0.0254,0.9746	-2815.48
0.0207,0.9793	-2798.89
0.0101,0.9899	-2784.47
0.0127,0.9873	-2815.01
0.0114,0.9886	-2802.27
0.0154,0.9846	-2797.62
0.0188,0.9812	-2806.21
0.0258,0.9742	-2797.48
0.0099,0.9901	-2775.29
0.0141,0.9859	-2801.79
0.0118,0.9882	-2788.88
0.0113,0.9887	-2788.90
0.0237,0.9763	-2788.96
0.0199,0.9801	-2790.83
0.0100,0.9900	-2779.89
0.0157,0.9843	-2801.80
0.0099,0.9901	-2793.71
0.0103,0.9897	-2807.29
0.0211,0.9789	-2802.90
